submission_id,age,comments,condition,education,experiment_duration,experiment_end_time,experiment_start_time,gender,item_id,languages,options,options_list,options_order,orientation,question,randomize,response,responseTime,trial_nr,split_order,split_options,chosen_option_ind,chosen_option
433,36,NA,too_little,Higher degree,91538,1692802029459,1692801937921,female,24,English,Alex once volunteered as an assistant in a magic trick.|Alex does not want to talk about the magic tricks.|the magician had a trick with birds.|the curtains were a nice bright red color.,Alex once volunteered as an assistant in a magic trick.|Alex does not want to talk about the magic tricks.|the magician had a trick with birds.|the curtains were a nice bright red color.,distractor_1_prejacent|target_prejacent|distractor_2_prejacent|competitor_prejacent,vertical,Which of the following four sentences best expresses what Alex meant with their utterance?,FALSE,the curtains were a nice bright red color.,15788,2,,,4,competitor_prejacent
503,35,Koalas are very cute,marked,Graduated College,127095,1692861782354,1692861655259,female,24,english,the magician had a trick with birds.|Alex does not want to talk about the magic tricks.|the curtains were a nice bright red color.|Alex once volunteered as an assistant in a magic trick.,the magician had a trick with birds.|Alex does not want to talk about the magic tricks.|the curtains were a nice bright red color.|Alex once volunteered as an assistant in a magic trick.,distractor_2_prejacent|target_prejacent|competitor_prejacent|distractor_1_prejacent,vertical,Which of the following four sentences best expresses what Alex meant with their utterance?,FALSE,Alex does not want to talk about the magic tricks.,17105,2,,,2,target_prejacent
519,37,NA,irrelevant,Graduated College,279743,1692861879396,1692861599653,female,24,English,Alex once volunteered as an assistant in a magic trick.|the curtains were a nice bright red color.|Alex does not want to talk about the magic tricks.|the magician had a trick with birds.,Alex once volunteered as an assistant in a magic trick.|the curtains were a nice bright red color.|Alex does not want to talk about the magic tricks.|the magician had a trick with birds.,distractor_1_prejacent|competitor_prejacent|target_prejacent|distractor_2_prejacent,vertical,Which of the following four sentences best expresses what Alex meant with their utterance?,FALSE,the curtains were a nice bright red color.,34473,2,,,2,competitor_prejacent
549,32,NA,too_much,Graduated College,112637,1693489986697,1693489874060,male,24,English,"Alex once volunteered as an assistant in a magic trick.|the magician had a trick with birds.|the magician intentionally did something that shocked the audience, e.g. pulled out a rabbit from a top hat.|the magician unintentionally did something that shocked the audience, e.g. they interrupted their performance.","Alex once volunteered as an assistant in a magic trick.|the magician had a trick with birds.|the magician intentionally did something that shocked the audience, e.g. pulled out a rabbit from a top hat.|the magician unintentionally did something that shocked the audience, e.g. they interrupted their performance.",distractor_1_prejacent|distractor_2_prejacent|competitor_prejacent|target_prejacent,vertical,Which of the following four sentences best expresses what Alex meant with their utterance?,FALSE,"the magician intentionally did something that shocked the audience, e.g. pulled out a rabbit from a top hat.",18439,2,,,3,competitor_prejacent
567,36,NA,too_little,Higher degree,55696,1693490040668,1693489984972,male,24,English,Alex once volunteered as an assistant in a magic trick.|there were some magic tricks.|the  magic tricks were not very good.|the magician had a trick with birds.,Alex once volunteered as an assistant in a magic trick.|there were some magic tricks.|the  magic tricks were not very good.|the magician had a trick with birds.,distractor_1_prejacent|competitor_prejacent|target_prejacent|distractor_2_prejacent,vertical,Which of the following four sentences best expresses what Alex meant with their utterance?,FALSE,there were some magic tricks.,4292,2,,,2,competitor_prejacent
601,28,N/A,irrelevant,Graduated High-school,91515,1693490471194,1693490379679,male,24,English,Alex does not want to talk about the magic tricks.|the magician had a trick with birds.|the curtains were a nice bright red color.|Alex once volunteered as an assistant in a magic trick.,Alex does not want to talk about the magic tricks.|the magician had a trick with birds.|the curtains were a nice bright red color.|Alex once volunteered as an assistant in a magic trick.,target_prejacent|distractor_2_prejacent|competitor_prejacent|distractor_1_prejacent,vertical,Which of the following four sentences best expresses what Alex meant with their utterance?,FALSE,the curtains were a nice bright red color.,11631,2,,,3,competitor_prejacent
622,50,NA,irrelevant,Graduated College,135472,1693490576037,1693490440565,female,24,English,"the magician unintentionally did something that shocked the audience, e.g. they interrupted their performance.|Alex once volunteered as an assistant in a magic trick.|the magician intentionally did something that shocked the audience, e.g. pulled out a rabbit from a top hat.|the magician had a trick with birds.","the magician unintentionally did something that shocked the audience, e.g. they interrupted their performance.|Alex once volunteered as an assistant in a magic trick.|the magician intentionally did something that shocked the audience, e.g. pulled out a rabbit from a top hat.|the magician had a trick with birds.",target_prejacent|distractor_1_prejacent|competitor_prejacent|distractor_2_prejacent,vertical,Which of the following four sentences best expresses what Alex meant with their utterance?,FALSE,"the magician intentionally did something that shocked the audience, e.g. pulled out a rabbit from a top hat.",22356,2,,,3,competitor_prejacent
636,45,Thank you,too_little,Graduated High-school,147073,1693490967790,1693490820717,male,24,English,Alex once volunteered as an assistant in a magic trick.|there were some magic tricks.|the  magic tricks were not very good.|the magician had a trick with birds.,Alex once volunteered as an assistant in a magic trick.|there were some magic tricks.|the  magic tricks were not very good.|the magician had a trick with birds.,distractor_1_prejacent|competitor_prejacent|target_prejacent|distractor_2_prejacent,vertical,Which of the following four sentences best expresses what Alex meant with their utterance?,FALSE,the  magic tricks were not very good.,17961,2,,,3,target_prejacent
642,27,NA,too_little,Graduated College,212611,1693814833925,1693814621314,male,24,English,the magic tricks were good.|the magician had a trick with birds.|the magic tricks were not good.|Alex once volunteered as an assistant in a magic trick.,the magic tricks were good.|the magician had a trick with birds.|the magic tricks were not good.|Alex once volunteered as an assistant in a magic trick.,target_prejacent|distractor_2_prejacent|competitor_prejacent|distractor_1_prejacent,vertical,Which of the following four sentences best expresses what Alex meant with their utterance?,FALSE,the magic tricks were good.,31419,2,,,1,target_prejacent
677,18,NA,too_little,Graduated High-school,78504,1693818617771,1693818539267,female,24,english,Alex once volunteered as an assistant in a magic trick.|the magic tricks were good.|the magic tricks were not good.|the magician had a trick with birds.,Alex once volunteered as an assistant in a magic trick.|the magic tricks were good.|the magic tricks were not good.|the magician had a trick with birds.,distractor_1_prejacent|target_prejacent|competitor_prejacent|distractor_2_prejacent,vertical,Which of the following four sentences best expresses what Alex meant with their utterance?,FALSE,the magic tricks were good.,12888,2,,,2,target_prejacent
670,50,NA,irrelevant,Graduated High-school,127065,1693818200065,1693818073000,male,24,English,Alex once volunteered as an assistant in a magic trick.|the  magic tricks were not very good.|there were some magic tricks.|the magician had a trick with birds.,Alex once volunteered as an assistant in a magic trick.|the  magic tricks were not very good.|there were some magic tricks.|the magician had a trick with birds.,distractor_1_prejacent|target_prejacent|competitor_prejacent|distractor_2_prejacent,vertical,Which of the following four sentences best expresses what Alex meant with their utterance?,FALSE,the  magic tricks were not very good.,23783,2,,,2,target_prejacent
688,38,NA,irrelevant,Graduated High-school,93744,1693818863414,1693818769670,female,24,English,"the magician unintentionally did something that shocked the audience, e.g. they interrupted their performance.|the magician had a trick with birds.|Alex once volunteered as an assistant in a magic trick.|the magician intentionally did something that shocked the audience, e.g. pulled out a rabbit from a top hat.","the magician unintentionally did something that shocked the audience, e.g. they interrupted their performance.|the magician had a trick with birds.|Alex once volunteered as an assistant in a magic trick.|the magician intentionally did something that shocked the audience, e.g. pulled out a rabbit from a top hat.",target_prejacent|distractor_2_prejacent|distractor_1_prejacent|competitor_prejacent,vertical,Which of the following four sentences best expresses what Alex meant with their utterance?,FALSE,"the magician intentionally did something that shocked the audience, e.g. pulled out a rabbit from a top hat.",13986,2,,,4,competitor_prejacent
716,49,None,marked,Graduated High-school,184418,1693819904842,1693819720424,female,24,english,the magic tricks were not good.|the magic tricks were good.|the magician had a trick with birds.|Alex once volunteered as an assistant in a magic trick.,the magic tricks were not good.|the magic tricks were good.|the magician had a trick with birds.|Alex once volunteered as an assistant in a magic trick.,competitor_prejacent|target_prejacent|distractor_2_prejacent|distractor_1_prejacent,vertical,Which of the following four sentences best expresses what Alex meant with their utterance?,FALSE,the magic tricks were good.,23975,2,,,2,target_prejacent
722,37,NA,baseline,Graduated College,154751,1693819985191,1693819830440,female,24,NA,"the magician unintentionally did something that shocked the audience, e.g. they interrupted their performance.|the magician intentionally did something that shocked the audience, e.g. pulled out a rabbit from a top hat.|the magician had a trick with birds.|Alex once volunteered as an assistant in a magic trick.","the magician unintentionally did something that shocked the audience, e.g. they interrupted their performance.|the magician intentionally did something that shocked the audience, e.g. pulled out a rabbit from a top hat.|the magician had a trick with birds.|Alex once volunteered as an assistant in a magic trick.",target_prejacent|competitor_prejacent|distractor_2_prejacent|distractor_1_prejacent,vertical,Which of the following four sentences best expresses what Alex meant with their utterance?,FALSE,"the magician intentionally did something that shocked the audience, e.g. pulled out a rabbit from a top hat.",39778,2,,,2,competitor_prejacent
731,62,NA,too_much,NA,244918,1693820243895,1693819998977,female,24,English,the magician had a trick with birds.|the  magic tricks were not very good.|there were some magic tricks.|Alex once volunteered as an assistant in a magic trick.,the magician had a trick with birds.|the  magic tricks were not very good.|there were some magic tricks.|Alex once volunteered as an assistant in a magic trick.,distractor_2_prejacent|target_prejacent|competitor_prejacent|distractor_1_prejacent,vertical,Which of the following four sentences best expresses what Alex meant with their utterance?,FALSE,there were some magic tricks.,28248,2,,,3,competitor_prejacent
745,36,NA,irrelevant,Graduated High-school,131175,1693820621442,1693820490267,female,24,English,the magic tricks were good.|Alex once volunteered as an assistant in a magic trick.|the magic tricks were not good.|the magician had a trick with birds.,the magic tricks were good.|Alex once volunteered as an assistant in a magic trick.|the magic tricks were not good.|the magician had a trick with birds.,target_prejacent|distractor_1_prejacent|competitor_prejacent|distractor_2_prejacent,vertical,Which of the following four sentences best expresses what Alex meant with their utterance?,FALSE,the magic tricks were good.,25262,2,,,1,target_prejacent
775,38,NA,too_much,Graduated High-school,284189,1693821335974,1693821051785,female,24,English,the magician had a trick with birds.|Alex once volunteered as an assistant in a magic trick.|the magic tricks were not good.|the magic tricks were good.,the magician had a trick with birds.|Alex once volunteered as an assistant in a magic trick.|the magic tricks were not good.|the magic tricks were good.,distractor_2_prejacent|distractor_1_prejacent|competitor_prejacent|target_prejacent,vertical,Which of the following four sentences best expresses what Alex meant with their utterance?,FALSE,the magic tricks were good.,22728,2,,,4,target_prejacent
444,60,NA,too_little,Graduated College,102221,1692826053473,1692825951252,female,23,English,Jo was the first to encourage John to try stand-up comedy.|John performed.|Josh tested his new jokes on Jo before performing them live.|Josh’s performance was not very good.,Jo was the first to encourage John to try stand-up comedy.|John performed.|Josh tested his new jokes on Jo before performing them live.|Josh’s performance was not very good.,distractor_1_prejacent|competitor_prejacent|distractor_2_prejacent|target_prejacent,vertical,Which of the following four sentences best expresses what Jo meant with their utterance?,FALSE,Josh’s performance was not very good.,17057,2,,,4,target_prejacent
462,26,NA,too_much,Graduated High-school,203357,1692826644336,1692826440979,male,23,English,Josh uttered a series of words with an intonation that suggested they were meant to be jokes.|Jo was the first to encourage John to try stand-up comedy.|Josh tested his new jokes on Jo before performing them live.|Josh’s performance was not very good.,Josh uttered a series of words with an intonation that suggested they were meant to be jokes.|Jo was the first to encourage John to try stand-up comedy.|Josh tested his new jokes on Jo before performing them live.|Josh’s performance was not very good.,competitor_prejacent|distractor_1_prejacent|distractor_2_prejacent|target_prejacent,vertical,Which of the following four sentences best expresses what Jo meant with their utterance?,FALSE,Josh’s performance was not very good.,47794,2,,,4,target_prejacent
499,49,NA,too_much,Graduated High-school,97989,1692861759603,1692861661614,female,23,English,Josh's performance was boring.|Josh's performance was hilarious.|Josh tested his new jokes on Jo before performing them live.|Jo was the first to encourage John to try stand-up comedy.,Josh's performance was boring.|Josh's performance was hilarious.|Josh tested his new jokes on Jo before performing them live.|Jo was the first to encourage John to try stand-up comedy.,competitor_prejacent|target_prejacent|distractor_2_prejacent|distractor_1_prejacent,vertical,Which of the following four sentences best expresses what Jo meant with their utterance?,FALSE,Josh's performance was hilarious.,10497,2,,,2,target_prejacent
492,24,NA,too_little,Higher degree,73952,1692861728049,1692861654097,female,23,english,Josh tested his new jokes on Jo before performing them live.|Josh’s performance was not very good.|Josh uttered a series of words with an intonation that suggested they were meant to be jokes.|Jo was the first to encourage John to try stand-up comedy.,Josh tested his new jokes on Jo before performing them live.|Josh’s performance was not very good.|Josh uttered a series of words with an intonation that suggested they were meant to be jokes.|Jo was the first to encourage John to try stand-up comedy.,distractor_2_prejacent|target_prejacent|competitor_prejacent|distractor_1_prejacent,vertical,Which of the following four sentences best expresses what Jo meant with their utterance?,FALSE,Josh’s performance was not very good.,12514,2,,,2,target_prejacent
514,26,NA,too_little,Graduated High-school,187842,1692861846755,1692861658913,female,23,english,Josh tested his new jokes on Jo before performing them live.|John performed.|Josh’s performance was not very good.|Jo was the first to encourage John to try stand-up comedy.,Josh tested his new jokes on Jo before performing them live.|John performed.|Josh’s performance was not very good.|Jo was the first to encourage John to try stand-up comedy.,distractor_2_prejacent|competitor_prejacent|target_prejacent|distractor_1_prejacent,vertical,Which of the following four sentences best expresses what Jo meant with their utterance?,FALSE,John performed.,6476,2,,,2,competitor_prejacent
526,53,Everything worked well. Thank you!,marked,Graduated College,194382,1692862028245,1692861833863,female,23,English,"Josh's performance unintentionally or indirectly caused the audience's silence, e.g., because it wasn’t funny.|Jo was the first to encourage John to try stand-up comedy.|Josh tested his new jokes on Jo before performing them live.|Josh's performance intentionally or indirectly caused the audience's silence, e.g., because he performed a serious piece.","Josh's performance unintentionally or indirectly caused the audience's silence, e.g., because it wasn’t funny.|Jo was the first to encourage John to try stand-up comedy.|Josh tested his new jokes on Jo before performing them live.|Josh's performance intentionally or indirectly caused the audience's silence, e.g., because he performed a serious piece.",target_prejacent|distractor_1_prejacent|distractor_2_prejacent|competitor_prejacent,vertical,Which of the following four sentences best expresses what Jo meant with their utterance?,FALSE,"Josh's performance unintentionally or indirectly caused the audience's silence, e.g., because it wasn’t funny.",45957,2,,,1,target_prejacent
531,26,None,irrelevant,Graduated College,178071,1692862301842,1692862123771,male,23,English,Josh’s performance was not very good.|Josh tested his new jokes on Jo before performing them live.|Jo was the first to encourage John to try stand-up comedy.|Josh uttered a series of words with an intonation that suggested they were meant to be jokes.,Josh’s performance was not very good.|Josh tested his new jokes on Jo before performing them live.|Jo was the first to encourage John to try stand-up comedy.|Josh uttered a series of words with an intonation that suggested they were meant to be jokes.,target_prejacent|distractor_2_prejacent|distractor_1_prejacent|competitor_prejacent,vertical,Which of the following four sentences best expresses what Jo meant with their utterance?,FALSE,Josh uttered a series of words with an intonation that suggested they were meant to be jokes.,56201,2,,,4,competitor_prejacent
532,43,NA,baseline,Graduated High-school,1197821,1692862809978,1692861612157,female,23,English,"Josh tested his new jokes on Jo before performing them live.|Josh's performance unintentionally or indirectly caused the audience's silence, e.g., because it wasn’t funny.|Jo was the first to encourage John to try stand-up comedy.|Josh's performance intentionally or indirectly caused the audience's silence, e.g., because he performed a serious piece.","Josh tested his new jokes on Jo before performing them live.|Josh's performance unintentionally or indirectly caused the audience's silence, e.g., because it wasn’t funny.|Jo was the first to encourage John to try stand-up comedy.|Josh's performance intentionally or indirectly caused the audience's silence, e.g., because he performed a serious piece.",distractor_2_prejacent|target_prejacent|distractor_1_prejacent|competitor_prejacent,vertical,Which of the following four sentences best expresses what Jo meant with their utterance?,FALSE,"Josh's performance unintentionally or indirectly caused the audience's silence, e.g., because it wasn’t funny.",16736,2,,,2,target_prejacent
559,26,NA,too_much,Graduated College,135261,1693490008507,1693489873246,male,23,English,Jo does not want to talk about Josh’s performance.|Jo was the first to encourage John to try stand-up comedy.|Josh tested his new jokes on Jo before performing them live.|John is a great cook.,Jo does not want to talk about Josh’s performance.|Jo was the first to encourage John to try stand-up comedy.|Josh tested his new jokes on Jo before performing them live.|John is a great cook.,target_prejacent|distractor_1_prejacent|distractor_2_prejacent|competitor_prejacent,vertical,Which of the following four sentences best expresses what Jo meant with their utterance?,FALSE,Jo does not want to talk about Josh’s performance.,22229,2,,,1,target_prejacent
577,35,NA,irrelevant,Graduated College,122835,1693490126155,1693490003320,male,23,English,Jo was the first to encourage John to try stand-up comedy.|Josh's performance was hilarious.|Josh tested his new jokes on Jo before performing them live.|Josh's performance was boring.,Jo was the first to encourage John to try stand-up comedy.|Josh's performance was hilarious.|Josh tested his new jokes on Jo before performing them live.|Josh's performance was boring.,distractor_1_prejacent|target_prejacent|distractor_2_prejacent|competitor_prejacent,vertical,Which of the following four sentences best expresses what Jo meant with their utterance?,FALSE,Josh's performance was hilarious.,20047,2,,,2,target_prejacent
566,47,NA,baseline,Graduated College,150644,1693490038158,1693489887514,female,23,English,Josh’s performance was not very good.|Josh tested his new jokes on Jo before performing them live.|John performed.|Jo was the first to encourage John to try stand-up comedy.,Josh’s performance was not very good.|Josh tested his new jokes on Jo before performing them live.|John performed.|Jo was the first to encourage John to try stand-up comedy.,target_prejacent|distractor_2_prejacent|competitor_prejacent|distractor_1_prejacent,vertical,Which of the following four sentences best expresses what Jo meant with their utterance?,FALSE,Josh’s performance was not very good.,19166,2,,,1,target_prejacent
589,40,n/a,irrelevant,Graduated High-school,119322,1693490439486,1693490320164,male,23,NA,Josh tested his new jokes on Jo before performing them live.|John is a great cook.|Jo does not want to talk about Josh’s performance.|Jo was the first to encourage John to try stand-up comedy.,Josh tested his new jokes on Jo before performing them live.|John is a great cook.|Jo does not want to talk about Josh’s performance.|Jo was the first to encourage John to try stand-up comedy.,distractor_2_prejacent|competitor_prejacent|target_prejacent|distractor_1_prejacent,vertical,Which of the following four sentences best expresses what Jo meant with their utterance?,FALSE,Jo does not want to talk about Josh’s performance.,10764,2,,,3,target_prejacent
614,26,NA,baseline,Graduated High-school,152754,1693490528412,1693490375658,male,23,English,Josh tested his new jokes on Jo before performing them live.|Josh's performance was boring.|Jo was the first to encourage John to try stand-up comedy.|Josh's performance was hilarious.,Josh tested his new jokes on Jo before performing them live.|Josh's performance was boring.|Jo was the first to encourage John to try stand-up comedy.|Josh's performance was hilarious.,distractor_2_prejacent|competitor_prejacent|distractor_1_prejacent|target_prejacent,vertical,Which of the following four sentences best expresses what Jo meant with their utterance?,FALSE,Josh's performance was hilarious.,18961,2,,,4,target_prejacent
625,44,NA,irrelevant,Graduated College,90752,1693490602494,1693490511742,male,23,English,John is a great cook.|Jo was the first to encourage John to try stand-up comedy.|Josh tested his new jokes on Jo before performing them live.|Jo does not want to talk about Josh’s performance.,John is a great cook.|Jo was the first to encourage John to try stand-up comedy.|Josh tested his new jokes on Jo before performing them live.|Jo does not want to talk about Josh’s performance.,competitor_prejacent|distractor_1_prejacent|distractor_2_prejacent|target_prejacent,vertical,Which of the following four sentences best expresses what Jo meant with their utterance?,FALSE,Jo does not want to talk about Josh’s performance.,24868,2,,,4,target_prejacent
659,22,NA,too_little,Graduated High-school,60932,1693816969414,1693816908482,female,23,english,Josh tested his new jokes on Jo before performing them live.|Jo does not want to talk about Josh’s performance.|Jo was the first to encourage John to try stand-up comedy.|John is a great cook.,Josh tested his new jokes on Jo before performing them live.|Jo does not want to talk about Josh’s performance.|Jo was the first to encourage John to try stand-up comedy.|John is a great cook.,distractor_2_prejacent|target_prejacent|distractor_1_prejacent|competitor_prejacent,vertical,Which of the following four sentences best expresses what Jo meant with their utterance?,FALSE,John is a great cook.,12138,2,,,4,competitor_prejacent
673,51,NA,too_much,Graduated College,287398,1693818354399,1693818067001,male,23,English,Josh’s performance was not very good.|Josh uttered a series of words with an intonation that suggested they were meant to be jokes.|Josh tested his new jokes on Jo before performing them live.|Jo was the first to encourage John to try stand-up comedy.,Josh’s performance was not very good.|Josh uttered a series of words with an intonation that suggested they were meant to be jokes.|Josh tested his new jokes on Jo before performing them live.|Jo was the first to encourage John to try stand-up comedy.,target_prejacent|competitor_prejacent|distractor_2_prejacent|distractor_1_prejacent,vertical,Which of the following four sentences best expresses what Jo meant with their utterance?,FALSE,Josh’s performance was not very good.,62971,2,,,1,target_prejacent
675,31,NA,marked,Graduated High-school,115691,1693818486358,1693818370667,male,23,English,John performed.|Josh tested his new jokes on Jo before performing them live.|Jo was the first to encourage John to try stand-up comedy.|Josh’s performance was not very good.,John performed.|Josh tested his new jokes on Jo before performing them live.|Jo was the first to encourage John to try stand-up comedy.|Josh’s performance was not very good.,competitor_prejacent|distractor_2_prejacent|distractor_1_prejacent|target_prejacent,vertical,Which of the following four sentences best expresses what Jo meant with their utterance?,FALSE,Josh’s performance was not very good.,26959,2,,,4,target_prejacent
699,29,n/a,marked,Graduated College,144752,1693819373237,1693819228485,male,23,English,Josh tested his new jokes on Jo before performing them live.|John performed.|Josh’s performance was not very good.|Jo was the first to encourage John to try stand-up comedy.,Josh tested his new jokes on Jo before performing them live.|John performed.|Josh’s performance was not very good.|Jo was the first to encourage John to try stand-up comedy.,distractor_2_prejacent|competitor_prejacent|target_prejacent|distractor_1_prejacent,vertical,Which of the following four sentences best expresses what Jo meant with their utterance?,FALSE,John performed.,8813,2,,,2,competitor_prejacent
724,71,None,baseline,Higher degree,189864,1693820056864,1693819867000,male,23,English,Josh’s performance was not very good.|Josh tested his new jokes on Jo before performing them live.|John performed.|Jo was the first to encourage John to try stand-up comedy.,Josh’s performance was not very good.|Josh tested his new jokes on Jo before performing them live.|John performed.|Jo was the first to encourage John to try stand-up comedy.,target_prejacent|distractor_2_prejacent|competitor_prejacent|distractor_1_prejacent,vertical,Which of the following four sentences best expresses what Jo meant with their utterance?,FALSE,Josh’s performance was not very good.,46651,2,,,1,target_prejacent
729,75,NA,baseline,Graduated College,187022,1693820134079,1693819947057,female,23,English,Josh's performance was hilarious.|Jo was the first to encourage John to try stand-up comedy.|Josh tested his new jokes on Jo before performing them live.|Josh's performance was boring.,Josh's performance was hilarious.|Jo was the first to encourage John to try stand-up comedy.|Josh tested his new jokes on Jo before performing them live.|Josh's performance was boring.,target_prejacent|distractor_1_prejacent|distractor_2_prejacent|competitor_prejacent,vertical,Which of the following four sentences best expresses what Jo meant with their utterance?,FALSE,Josh's performance was hilarious.,24274,2,,,1,target_prejacent
735,74,NA,irrelevant,Higher degree,88031,1693820406962,1693820318931,male,23,English,Jo was the first to encourage John to try stand-up comedy.|Josh tested his new jokes on Jo before performing them live.|Jo does not want to talk about Josh’s performance.|John is a great cook.,Jo was the first to encourage John to try stand-up comedy.|Josh tested his new jokes on Jo before performing them live.|Jo does not want to talk about Josh’s performance.|John is a great cook.,distractor_1_prejacent|distractor_2_prejacent|target_prejacent|competitor_prejacent,vertical,Which of the following four sentences best expresses what Jo meant with their utterance?,FALSE,John is a great cook.,10637,2,,,4,competitor_prejacent
753,32,NA,marked,Graduated College,217483,1693820974147,1693820756664,female,23,English,"Josh tested his new jokes on Jo before performing them live.|Jo was the first to encourage John to try stand-up comedy.|Josh's performance unintentionally or indirectly caused the audience's silence, e.g., because it wasn’t funny.|Josh's performance intentionally or indirectly caused the audience's silence, e.g., because he performed a serious piece.","Josh tested his new jokes on Jo before performing them live.|Jo was the first to encourage John to try stand-up comedy.|Josh's performance unintentionally or indirectly caused the audience's silence, e.g., because it wasn’t funny.|Josh's performance intentionally or indirectly caused the audience's silence, e.g., because he performed a serious piece.",distractor_2_prejacent|distractor_1_prejacent|target_prejacent|competitor_prejacent,vertical,Which of the following four sentences best expresses what Jo meant with their utterance?,FALSE,"Josh's performance unintentionally or indirectly caused the audience's silence, e.g., because it wasn’t funny.",60809,2,,,3,target_prejacent
758,59,NA,too_much,Graduated High-school,217500,1693821045872,1693820828372,female,23,English,John performed.|Jo was the first to encourage John to try stand-up comedy.|Josh’s performance was not very good.|Josh tested his new jokes on Jo before performing them live.,John performed.|Jo was the first to encourage John to try stand-up comedy.|Josh’s performance was not very good.|Josh tested his new jokes on Jo before performing them live.,competitor_prejacent|distractor_1_prejacent|target_prejacent|distractor_2_prejacent,vertical,Which of the following four sentences best expresses what Jo meant with their utterance?,FALSE,Josh’s performance was not very good.,77586,2,,,3,target_prejacent
768,62,NA,marked,Graduated High-school,117453,1693821215137,1693821097684,female,23,English,Jo was the first to encourage John to try stand-up comedy.|Jo does not want to talk about Josh’s performance.|John is a great cook.|Josh tested his new jokes on Jo before performing them live.,Jo was the first to encourage John to try stand-up comedy.|Jo does not want to talk about Josh’s performance.|John is a great cook.|Josh tested his new jokes on Jo before performing them live.,distractor_1_prejacent|target_prejacent|competitor_prejacent|distractor_2_prejacent,vertical,Which of the following four sentences best expresses what Jo meant with their utterance?,FALSE,Jo does not want to talk about Josh’s performance.,23372,2,,,2,target_prejacent
779,42,NA,baseline,Graduated High-school,129546,1693821433914,1693821304368,male,23,English,Josh's performance was boring.|Josh's performance was hilarious.|Josh tested his new jokes on Jo before performing them live.|Jo was the first to encourage John to try stand-up comedy.,Josh's performance was boring.|Josh's performance was hilarious.|Josh tested his new jokes on Jo before performing them live.|Jo was the first to encourage John to try stand-up comedy.,competitor_prejacent|target_prejacent|distractor_2_prejacent|distractor_1_prejacent,vertical,Which of the following four sentences best expresses what Jo meant with their utterance?,FALSE,Josh's performance was hilarious.,15462,2,,,2,target_prejacent
446,38,NA,too_much,Graduated College,127208,1692826176520,1692826049312,male,22,English,"Jesse’s colleagues attended the pottery class, too.|Jesse made something out of clay that had the same general shape as pots normally do.|Jesse’s pot was not very good.|The pottery class teacher required taking a drawing class beforehand.","Jesse’s colleagues attended the pottery class, too.|Jesse made something out of clay that had the same general shape as pots normally do.|Jesse’s pot was not very good.|The pottery class teacher required taking a drawing class beforehand.",distractor_1_prejacent|competitor_prejacent|target_prejacent|distractor_2_prejacent,vertical,Which of the following four sentences best expresses what Jesse meant with their utterance?,FALSE,Jesse made something out of clay that had the same general shape as pots normally do.,32472,2,,,2,competitor_prejacent
451,44,NA,too_little,Graduated College,126942,1692826351521,1692826224579,male,22,english,"Jesse’s colleagues attended the pottery class, too.|Jesse’s work was not very successful.|The pottery class teacher required taking a drawing class beforehand.","Jesse’s colleagues attended the pottery class, too.|Jesse’s work was not very successful.|The pottery class teacher required taking a drawing class beforehand.",distractor_1_prejacent|target_prejacent|distractor_2_prejacent,vertical,Which of the following four sentences best expresses what Jesse meant with their utterance?,FALSE,Jesse’s work was not very successful.,34243,2,,,2,target_prejacent
484,40,NA,irrelevant,Graduated High-school,111313,1692861688123,1692861576810,male,22,English,"Jesse does not want to talk about the pottery class.|Jesse’s colleagues attended the pottery class, too.|The pottery class teacher required taking a drawing class beforehand.|a painting class took place next door to the pottery class.","Jesse does not want to talk about the pottery class.|Jesse’s colleagues attended the pottery class, too.|The pottery class teacher required taking a drawing class beforehand.|a painting class took place next door to the pottery class.",target_prejacent|distractor_1_prejacent|distractor_2_prejacent|competitor_prejacent,vertical,Which of the following four sentences best expresses what Jesse meant with their utterance?,FALSE,Jesse does not want to talk about the pottery class.,31886,2,,,1,target_prejacent
571,48,n/a,too_much,Graduated College,187278,1693490085013,1693489897735,male,22,English,"Jesse’s colleagues attended the pottery class, too.|a painting class took place next door to the pottery class.|The pottery class teacher required taking a drawing class beforehand.|Jesse does not want to talk about the pottery class.","Jesse’s colleagues attended the pottery class, too.|a painting class took place next door to the pottery class.|The pottery class teacher required taking a drawing class beforehand.|Jesse does not want to talk about the pottery class.",distractor_1_prejacent|competitor_prejacent|distractor_2_prejacent|target_prejacent,vertical,Which of the following four sentences best expresses what Jesse meant with their utterance?,FALSE,Jesse does not want to talk about the pottery class.,46131,2,,,4,target_prejacent
562,47,NA,baseline,Graduated High-school,146042,1693490024039,1693489877997,male,22,english,"The pottery class teacher required taking a drawing class beforehand.|Jesse’s work was not very successful.|Jesse’s colleagues attended the pottery class, too.","The pottery class teacher required taking a drawing class beforehand.|Jesse’s work was not very successful.|Jesse’s colleagues attended the pottery class, too.",distractor_2_prejacent|target_prejacent|distractor_1_prejacent,vertical,Which of the following four sentences best expresses what Jesse meant with their utterance?,FALSE,Jesse’s work was not very successful.,24251,2,,,2,target_prejacent
582,74,NA,too_little,Higher degree,311260,1693490220557,1693489909297,male,22,english,"Jesse’s colleagues attended the pottery class, too.|Jesse’s work was not very successful.|The pottery class teacher required taking a drawing class beforehand.","Jesse’s colleagues attended the pottery class, too.|Jesse’s work was not very successful.|The pottery class teacher required taking a drawing class beforehand.",distractor_1_prejacent|target_prejacent|distractor_2_prejacent,vertical,Which of the following four sentences best expresses what Jesse meant with their utterance?,FALSE,Jesse’s work was not very successful.,117373,2,,,2,target_prejacent
663,33,NA,marked,Graduated College,112716,1693817435165,1693817322449,female,22,english,"Jesse's pot intentionally or indirectly caused positive reactions, e.g., because Jesse is a pottery professional and made a beautiful piece.|The pottery class teacher required taking a drawing class beforehand.|Jesse's pot unintentionally or indirectly caused negative reactions, e.g., because it was ugly.|Jesse’s colleagues attended the pottery class, too.","Jesse's pot intentionally or indirectly caused positive reactions, e.g., because Jesse is a pottery professional and made a beautiful piece.|The pottery class teacher required taking a drawing class beforehand.|Jesse's pot unintentionally or indirectly caused negative reactions, e.g., because it was ugly.|Jesse’s colleagues attended the pottery class, too.",competitor_prejacent|distractor_2_prejacent|target_prejacent|distractor_1_prejacent,vertical,Which of the following four sentences best expresses what Jesse meant with their utterance?,FALSE,"Jesse's pot unintentionally or indirectly caused negative reactions, e.g., because it was ugly.",39282,2,,,3,target_prejacent
687,29,NA,too_much,Graduated High-school,137801,1693818862962,1693818725161,female,22,english,"a painting class took place next door to the pottery class.|Jesse’s colleagues attended the pottery class, too.|The pottery class teacher required taking a drawing class beforehand.|Jesse does not want to talk about the pottery class.","a painting class took place next door to the pottery class.|Jesse’s colleagues attended the pottery class, too.|The pottery class teacher required taking a drawing class beforehand.|Jesse does not want to talk about the pottery class.",competitor_prejacent|distractor_1_prejacent|distractor_2_prejacent|target_prejacent,vertical,Which of the following four sentences best expresses what Jesse meant with their utterance?,FALSE,Jesse does not want to talk about the pottery class.,31955,2,,,4,target_prejacent
722,37,NA,marked,Graduated College,154751,1693819985191,1693819830440,female,22,NA,"Jesse’s pot was ugly.|The pottery class teacher required taking a drawing class beforehand.|Jesse’s colleagues attended the pottery class, too.|Jesse’s pot was good.","Jesse’s pot was ugly.|The pottery class teacher required taking a drawing class beforehand.|Jesse’s colleagues attended the pottery class, too.|Jesse’s pot was good.",competitor_prejacent|distractor_2_prejacent|distractor_1_prejacent|target_prejacent,vertical,Which of the following four sentences best expresses what Jesse meant with their utterance?,FALSE,Jesse’s pot was good.,52115,1,,,4,target_prejacent
734,44,NA,baseline,Graduated College,78664,1693820403818,1693820325154,male,22,NA,"The pottery class teacher required taking a drawing class beforehand.|Jesse’s pot was ugly.|Jesse’s pot was good.|Jesse’s colleagues attended the pottery class, too.","The pottery class teacher required taking a drawing class beforehand.|Jesse’s pot was ugly.|Jesse’s pot was good.|Jesse’s colleagues attended the pottery class, too.",distractor_2_prejacent|competitor_prejacent|target_prejacent|distractor_1_prejacent,vertical,Which of the following four sentences best expresses what Jesse meant with their utterance?,FALSE,Jesse’s pot was good.,14071,2,,,3,target_prejacent
750,57,NA,baseline,Graduated High-school,221041,1693820839890,1693820618849,male,22,NA,"a painting class took place next door to the pottery class.|Jesse’s colleagues attended the pottery class, too.|The pottery class teacher required taking a drawing class beforehand.|Jesse does not want to talk about the pottery class.","a painting class took place next door to the pottery class.|Jesse’s colleagues attended the pottery class, too.|The pottery class teacher required taking a drawing class beforehand.|Jesse does not want to talk about the pottery class.",competitor_prejacent|distractor_1_prejacent|distractor_2_prejacent|target_prejacent,vertical,Which of the following four sentences best expresses what Jesse meant with their utterance?,FALSE,Jesse does not want to talk about the pottery class.,82403,2,,,4,target_prejacent
769,35,NA,irrelevant,Graduated College,115698,1693821241805,1693821126107,male,22,english,"The pottery class teacher required taking a drawing class beforehand.|Jesse’s colleagues attended the pottery class, too.|Jesse’s work was not very successful.","The pottery class teacher required taking a drawing class beforehand.|Jesse’s colleagues attended the pottery class, too.|Jesse’s work was not very successful.",distractor_2_prejacent|distractor_1_prejacent|target_prejacent,vertical,Which of the following four sentences best expresses what Jesse meant with their utterance?,FALSE,Jesse’s work was not very successful.,31533,2,,,3,target_prejacent
788,31,NA,irrelevant,Graduated College,81516,1693821753890,1693821672374,male,22,English,"Jesse’s pot was good.|Jesse’s colleagues attended the pottery class, too.|The pottery class teacher required taking a drawing class beforehand.|Jesse’s pot was ugly.","Jesse’s pot was good.|Jesse’s colleagues attended the pottery class, too.|The pottery class teacher required taking a drawing class beforehand.|Jesse’s pot was ugly.",target_prejacent|distractor_1_prejacent|distractor_2_prejacent|competitor_prejacent,vertical,Which of the following four sentences best expresses what Jesse meant with their utterance?,FALSE,Jesse’s pot was good.,20956,2,,,1,target_prejacent
771,42,NA,baseline,Higher degree,102255,1693821273534,1693821171279,male,22,english,"Jesse’s colleagues attended the pottery class, too.|Jesse’s work was not very successful.|The pottery class teacher required taking a drawing class beforehand.","Jesse’s colleagues attended the pottery class, too.|Jesse’s work was not very successful.|The pottery class teacher required taking a drawing class beforehand.",distractor_1_prejacent|target_prejacent|distractor_2_prejacent,vertical,Which of the following four sentences best expresses what Jesse meant with their utterance?,FALSE,Jesse’s work was not very successful.,22780,2,,,2,target_prejacent
779,42,NA,marked,Graduated High-school,129546,1693821433914,1693821304368,male,22,English,"Jesse’s colleagues attended the pottery class, too.|The pottery class teacher required taking a drawing class beforehand.|Jesse's pot unintentionally or indirectly caused negative reactions, e.g., because it was ugly.|Jesse's pot intentionally or indirectly caused positive reactions, e.g., because Jesse is a pottery professional and made a beautiful piece.","Jesse’s colleagues attended the pottery class, too.|The pottery class teacher required taking a drawing class beforehand.|Jesse's pot unintentionally or indirectly caused negative reactions, e.g., because it was ugly.|Jesse's pot intentionally or indirectly caused positive reactions, e.g., because Jesse is a pottery professional and made a beautiful piece.",distractor_1_prejacent|distractor_2_prejacent|target_prejacent|competitor_prejacent,vertical,Which of the following four sentences best expresses what Jesse meant with their utterance?,FALSE,"Jesse's pot intentionally or indirectly caused positive reactions, e.g., because Jesse is a pottery professional and made a beautiful piece.",69911,1,,,4,competitor_prejacent
786,63,NA,irrelevant,Higher degree,229326,1693821632412,1693821403086,female,22,English,"The pottery class teacher required taking a drawing class beforehand.|Jesse’s pot was not very good.|Jesse made something out of clay that had the same general shape as pots normally do.|Jesse’s colleagues attended the pottery class, too.","The pottery class teacher required taking a drawing class beforehand.|Jesse’s pot was not very good.|Jesse made something out of clay that had the same general shape as pots normally do.|Jesse’s colleagues attended the pottery class, too.",distractor_2_prejacent|target_prejacent|competitor_prejacent|distractor_1_prejacent,vertical,Which of the following four sentences best expresses what Jesse meant with their utterance?,FALSE,Jesse’s pot was not very good.,45081,2,,,2,target_prejacent
789,57,None,too_little,Graduated High-school,165661,1693821800563,1693821634902,female,22,English,"The pottery class teacher required taking a drawing class beforehand.|Jesse’s work was not very successful.|Jesse’s colleagues attended the pottery class, too.","The pottery class teacher required taking a drawing class beforehand.|Jesse’s work was not very successful.|Jesse’s colleagues attended the pottery class, too.",distractor_2_prejacent|target_prejacent|distractor_1_prejacent,vertical,Which of the following four sentences best expresses what Jesse meant with their utterance?,FALSE,Jesse’s work was not very successful.,33822,2,,,2,target_prejacent
449,44,NA,baseline,Graduated High-school,135113,1692826233938,1692826098825,male,21,english,"Sophie often helped Jack with his science homework.|Jack pulled his set up from a box, put it on the table, set up a poster and performed the steps that were supposed to be a demonstration.|Jack once explained the concept of gravity to Sophie using an apple.|Jack's project demonstration did not go as planned.","Sophie often helped Jack with his science homework.|Jack pulled his set up from a box, put it on the table, set up a poster and performed the steps that were supposed to be a demonstration.|Jack once explained the concept of gravity to Sophie using an apple.|Jack's project demonstration did not go as planned.",distractor_1_prejacent|competitor_prejacent|distractor_2_prejacent|target_prejacent,vertical,Which of the following four sentences best expresses what Sophie meant with their utterance?,FALSE,"Jack pulled his set up from a box, put it on the table, set up a poster and performed the steps that were supposed to be a demonstration.",66618,2,,,2,competitor_prejacent
456,40,"none, thank you!",irrelevant,Graduated High-school,96306,1692826499281,1692826402975,female,21,english,Jack once explained the concept of gravity to Sophie using an apple.|the project to the left of Jack's was very good.|Sophie does not want to talk about Jack's project.|Sophie often helped Jack with his science homework.,Jack once explained the concept of gravity to Sophie using an apple.|the project to the left of Jack's was very good.|Sophie does not want to talk about Jack's project.|Sophie often helped Jack with his science homework.,distractor_2_prejacent|competitor_prejacent|target_prejacent|distractor_1_prejacent,vertical,Which of the following four sentences best expresses what Sophie meant with their utterance?,FALSE,Sophie does not want to talk about Jack's project.,17188,2,,,3,target_prejacent
491,30,NA,too_much,Graduated College,49731,1692861727212,1692861677481,male,21,English,Jack's project was not very good.|Jack once explained the concept of gravity to Sophie using an apple.|Sophie often helped Jack with his science homework.|Jack presented the project.,Jack's project was not very good.|Jack once explained the concept of gravity to Sophie using an apple.|Sophie often helped Jack with his science homework.|Jack presented the project.,target_prejacent|distractor_2_prejacent|distractor_1_prejacent|competitor_prejacent,vertical,Which of the following four sentences best expresses what Sophie meant with their utterance?,FALSE,Jack's project was not very good.,9910,2,,,1,target_prejacent
500,60,none,irrelevant,Higher degree,176829,1692861762548,1692861585719,male,21,English,Sophie often helped Jack with his science homework.|the project to the left of Jack's was very good.|Sophie does not want to talk about Jack's project.|Jack once explained the concept of gravity to Sophie using an apple.,Sophie often helped Jack with his science homework.|the project to the left of Jack's was very good.|Sophie does not want to talk about Jack's project.|Jack once explained the concept of gravity to Sophie using an apple.,distractor_1_prejacent|competitor_prejacent|target_prejacent|distractor_2_prejacent,vertical,Which of the following four sentences best expresses what Sophie meant with their utterance?,FALSE,Sophie does not want to talk about Jack's project.,33355,2,,,3,target_prejacent
505,33,Everything was smooth,baseline,Graduated High-school,134142,1692861785857,1692861651715,male,21,English,Jack's project was good.|Sophie often helped Jack with his science homework.|Jack's project was not good.|Jack once explained the concept of gravity to Sophie using an apple.,Jack's project was good.|Sophie often helped Jack with his science homework.|Jack's project was not good.|Jack once explained the concept of gravity to Sophie using an apple.,target_prejacent|distractor_1_prejacent|competitor_prejacent|distractor_2_prejacent,vertical,Which of the following four sentences best expresses what Sophie meant with their utterance?,FALSE,Jack's project was good.,20110,2,,,1,target_prejacent
549,32,NA,marked,Graduated College,112637,1693489986697,1693489874060,male,21,English,"Sophie often helped Jack with his science homework.|Jack pulled his set up from a box, put it on the table, set up a poster and performed the steps that were supposed to be a demonstration.|Jack's project demonstration did not go as planned.|Jack once explained the concept of gravity to Sophie using an apple.","Sophie often helped Jack with his science homework.|Jack pulled his set up from a box, put it on the table, set up a poster and performed the steps that were supposed to be a demonstration.|Jack's project demonstration did not go as planned.|Jack once explained the concept of gravity to Sophie using an apple.",distractor_1_prejacent|competitor_prejacent|target_prejacent|distractor_2_prejacent,vertical,Which of the following four sentences best expresses what Sophie meant with their utterance?,FALSE,"Jack pulled his set up from a box, put it on the table, set up a poster and performed the steps that were supposed to be a demonstration.",52835,1,,,2,competitor_prejacent
565,45,NA,irrelevant,Graduated High-school,149739,1693490035052,1693489885313,male,21,English,the project to the left of Jack's was very good.|Jack once explained the concept of gravity to Sophie using an apple.|Sophie often helped Jack with his science homework.|Sophie does not want to talk about Jack's project.,the project to the left of Jack's was very good.|Jack once explained the concept of gravity to Sophie using an apple.|Sophie often helped Jack with his science homework.|Sophie does not want to talk about Jack's project.,competitor_prejacent|distractor_2_prejacent|distractor_1_prejacent|target_prejacent,vertical,Which of the following four sentences best expresses what Sophie meant with their utterance?,FALSE,Sophie does not want to talk about Jack's project.,37447,2,,,4,target_prejacent
621,28,none,too_little,Graduated College,159261,1693490564285,1693490405024,male,21,english,Sophie often helped Jack with his science homework.|Jack presented the project.|Jack once explained the concept of gravity to Sophie using an apple.|Jack's project was not very good.,Sophie often helped Jack with his science homework.|Jack presented the project.|Jack once explained the concept of gravity to Sophie using an apple.|Jack's project was not very good.,distractor_1_prejacent|competitor_prejacent|distractor_2_prejacent|target_prejacent,vertical,Which of the following four sentences best expresses what Sophie meant with their utterance?,FALSE,Jack presented the project.,15242,2,,,2,competitor_prejacent
652,56,NA,baseline,Higher degree,125240,1693816363980,1693816238740,male,21,English,"Jack's project demonstration did not go as planned.|Jack once explained the concept of gravity to Sophie using an apple.|Jack pulled his set up from a box, put it on the table, set up a poster and performed the steps that were supposed to be a demonstration.|Sophie often helped Jack with his science homework.","Jack's project demonstration did not go as planned.|Jack once explained the concept of gravity to Sophie using an apple.|Jack pulled his set up from a box, put it on the table, set up a poster and performed the steps that were supposed to be a demonstration.|Sophie often helped Jack with his science homework.",target_prejacent|distractor_2_prejacent|competitor_prejacent|distractor_1_prejacent,vertical,Which of the following four sentences best expresses what Sophie meant with their utterance?,FALSE,Jack's project demonstration did not go as planned.,41422,2,,,1,target_prejacent
664,45,NA,marked,Graduated High-school,365743,1693817524038,1693817158295,male,21,English,Jack's project was not very good.|Jack presented the project.|Jack once explained the concept of gravity to Sophie using an apple.|Sophie often helped Jack with his science homework.,Jack's project was not very good.|Jack presented the project.|Jack once explained the concept of gravity to Sophie using an apple.|Sophie often helped Jack with his science homework.,target_prejacent|competitor_prejacent|distractor_2_prejacent|distractor_1_prejacent,vertical,Which of the following four sentences best expresses what Sophie meant with their utterance?,FALSE,Jack presented the project.,16186,2,,,2,competitor_prejacent
763,59,No further comments,marked,Graduated High-school,264593,1693821142592,1693820877999,male,21,English,"Jack once explained the concept of gravity to Sophie using an apple.|Jack unintentionally made a project in such a way that made people shriek, e.g., because it made a sudden loud noise.|Jack intentionally made a project in such a way that made people shriek, e.g., because Jack told them to shriek for an audio recording.|Sophie often helped Jack with his science homework.","Jack once explained the concept of gravity to Sophie using an apple.|Jack unintentionally made a project in such a way that made people shriek, e.g., because it made a sudden loud noise.|Jack intentionally made a project in such a way that made people shriek, e.g., because Jack told them to shriek for an audio recording.|Sophie often helped Jack with his science homework.",distractor_2_prejacent|target_prejacent|competitor_prejacent|distractor_1_prejacent,vertical,Which of the following four sentences best expresses what Sophie meant with their utterance?,FALSE,"Jack unintentionally made a project in such a way that made people shriek, e.g., because it made a sudden loud noise.",54662,2,,,2,target_prejacent
777,53,NA,marked,Graduated High-school,261049,1693821389623,1693821128574,male,21,english,"Sophie often helped Jack with his science homework.|Jack once explained the concept of gravity to Sophie using an apple.|Jack intentionally made a project in such a way that made people shriek, e.g., because Jack told them to shriek for an audio recording.|Jack unintentionally made a project in such a way that made people shriek, e.g., because it made a sudden loud noise.","Sophie often helped Jack with his science homework.|Jack once explained the concept of gravity to Sophie using an apple.|Jack intentionally made a project in such a way that made people shriek, e.g., because Jack told them to shriek for an audio recording.|Jack unintentionally made a project in such a way that made people shriek, e.g., because it made a sudden loud noise.",distractor_1_prejacent|distractor_2_prejacent|competitor_prejacent|target_prejacent,vertical,Which of the following four sentences best expresses what Sophie meant with their utterance?,FALSE,"Jack unintentionally made a project in such a way that made people shriek, e.g., because it made a sudden loud noise.",48663,2,,,4,target_prejacent
785,75,NA,irrelevant,Higher degree,177702,1693821597922,1693821420220,male,21,NA,"Jack pulled his set up from a box, put it on the table, set up a poster and performed the steps that were supposed to be a demonstration.|Sophie often helped Jack with his science homework.|Jack once explained the concept of gravity to Sophie using an apple.|Jack's project demonstration did not go as planned.","Jack pulled his set up from a box, put it on the table, set up a poster and performed the steps that were supposed to be a demonstration.|Sophie often helped Jack with his science homework.|Jack once explained the concept of gravity to Sophie using an apple.|Jack's project demonstration did not go as planned.",competitor_prejacent|distractor_1_prejacent|distractor_2_prejacent|target_prejacent,vertical,Which of the following four sentences best expresses what Sophie meant with their utterance?,FALSE,Jack's project demonstration did not go as planned.,41539,2,,,4,target_prejacent
443,63,Thank you!,irrelevant,Graduated College,78406,1692826024867,1692825946461,female,20,English,Lio does not want to talk about the fashion show.|the collection only had black and white clothes.|there is an interesting event tomorrow at the same venue.|Lio was a photographer at model castings.,Lio does not want to talk about the fashion show.|the collection only had black and white clothes.|there is an interesting event tomorrow at the same venue.|Lio was a photographer at model castings.,target_prejacent|distractor_2_prejacent|competitor_prejacent|distractor_1_prejacent,vertical,Which of the following four sentences best expresses what Lio meant with their utterance?,FALSE,Lio does not want to talk about the fashion show.,24904,2,,,1,target_prejacent
445,30,NA,marked,Higher degree,143503,1692826149013,1692826005510,female,20,English,the collection was great.|the collection was too extravagant.|Lio was a photographer at model castings.|the collection only had black and white clothes.,the collection was great.|the collection was too extravagant.|Lio was a photographer at model castings.|the collection only had black and white clothes.,target_prejacent|competitor_prejacent|distractor_1_prejacent|distractor_2_prejacent,vertical,Which of the following four sentences best expresses what Lio meant with their utterance?,FALSE,the collection was great.,19266,2,,,1,target_prejacent
499,49,NA,baseline,Graduated High-school,97989,1692861759603,1692861661614,female,20,English,Lio was a photographer at model castings.|the collection showcased clothes that would not be well suited for every day life.|the models put one foot in front of the other while wearing arrangements of fabric and complex hairstyles.|the collection only had black and white clothes.,Lio was a photographer at model castings.|the collection showcased clothes that would not be well suited for every day life.|the models put one foot in front of the other while wearing arrangements of fabric and complex hairstyles.|the collection only had black and white clothes.,distractor_1_prejacent|target_prejacent|competitor_prejacent|distractor_2_prejacent,vertical,Which of the following four sentences best expresses what Lio meant with their utterance?,FALSE,the models put one foot in front of the other while wearing arrangements of fabric and complex hairstyles.,25738,1,,,3,competitor_prejacent
520,56,NA,baseline,Higher degree,43140,1692861888335,1692861845195,female,20,english,"one model’s walk unintentionally caused people to gasp, e.g., because they fell.|the collection only had black and white clothes.|one model’s walk intentionally caused people to gasp, e.g., because they performed a stunt.|Lio was a photographer at model castings.","one model’s walk unintentionally caused people to gasp, e.g., because they fell.|the collection only had black and white clothes.|one model’s walk intentionally caused people to gasp, e.g., because they performed a stunt.|Lio was a photographer at model castings.",target_prejacent|distractor_2_prejacent|competitor_prejacent|distractor_1_prejacent,vertical,Which of the following four sentences best expresses what Lio meant with their utterance?,FALSE,"one model’s walk intentionally caused people to gasp, e.g., because they performed a stunt.",9127,2,,,3,competitor_prejacent
515,24,NA,too_much,Graduated High-school,110337,1692861846852,1692861736515,male,20,English,Lio was a photographer at model castings.|the collection showcased clothes that would not be well suited for every day life.|the models put one foot in front of the other while wearing arrangements of fabric and complex hairstyles.|the collection only had black and white clothes.,Lio was a photographer at model castings.|the collection showcased clothes that would not be well suited for every day life.|the models put one foot in front of the other while wearing arrangements of fabric and complex hairstyles.|the collection only had black and white clothes.,distractor_1_prejacent|target_prejacent|competitor_prejacent|distractor_2_prejacent,vertical,Which of the following four sentences best expresses what Lio meant with their utterance?,FALSE,the collection showcased clothes that would not be well suited for every day life.,38814,2,,,2,target_prejacent
519,37,NA,marked,Graduated College,279743,1692861879396,1692861599653,female,20,English,"one model’s walk intentionally caused people to gasp, e.g., because they performed a stunt.|Lio was a photographer at model castings.|the collection only had black and white clothes.|one model’s walk unintentionally caused people to gasp, e.g., because they fell.","one model’s walk intentionally caused people to gasp, e.g., because they performed a stunt.|Lio was a photographer at model castings.|the collection only had black and white clothes.|one model’s walk unintentionally caused people to gasp, e.g., because they fell.",competitor_prejacent|distractor_1_prejacent|distractor_2_prejacent|target_prejacent,vertical,Which of the following four sentences best expresses what Lio meant with their utterance?,FALSE,"one model’s walk intentionally caused people to gasp, e.g., because they performed a stunt.",61004,1,,,1,competitor_prejacent
534,66,NA,irrelevant,Graduated College,194476,1692863208647,1692863014171,female,20,NA,the collection only had black and white clothes.|there is an interesting event tomorrow at the same venue.|Lio does not want to talk about the fashion show.|Lio was a photographer at model castings.,the collection only had black and white clothes.|there is an interesting event tomorrow at the same venue.|Lio does not want to talk about the fashion show.|Lio was a photographer at model castings.,distractor_2_prejacent|competitor_prejacent|target_prejacent|distractor_1_prejacent,vertical,Which of the following four sentences best expresses what Lio meant with their utterance?,FALSE,Lio does not want to talk about the fashion show.,39386,2,,,3,target_prejacent
545,47,None,baseline,Graduated College,95610,1693489976178,1693489880569,female,20,English,the collection was too extravagant.|Lio was a photographer at model castings.|the collection was great.|the collection only had black and white clothes.,the collection was too extravagant.|Lio was a photographer at model castings.|the collection was great.|the collection only had black and white clothes.,competitor_prejacent|distractor_1_prejacent|target_prejacent|distractor_2_prejacent,vertical,Which of the following four sentences best expresses what Lio meant with their utterance?,FALSE,the collection was great.,14833,2,,,3,target_prejacent
563,36,Thank you,too_little,Graduated High-school,138362,1693490022445,1693489884083,female,20,English,the collection was great.|the collection was too extravagant.|the collection only had black and white clothes.|Lio was a photographer at model castings.,the collection was great.|the collection was too extravagant.|the collection only had black and white clothes.|Lio was a photographer at model castings.,target_prejacent|competitor_prejacent|distractor_2_prejacent|distractor_1_prejacent,vertical,Which of the following four sentences best expresses what Lio meant with their utterance?,FALSE,the collection was great.,21416,2,,,1,target_prejacent
594,37,NA,irrelevant,Graduated High-school,83842,1693490449413,1693490365571,female,20,NA,the collection only had black and white clothes.|the collection showcased clothes that would not be well suited for every day life.|Lio was a photographer at model castings.|the models put one foot in front of the other while wearing arrangements of fabric and complex hairstyles.,the collection only had black and white clothes.|the collection showcased clothes that would not be well suited for every day life.|Lio was a photographer at model castings.|the models put one foot in front of the other while wearing arrangements of fabric and complex hairstyles.,distractor_2_prejacent|target_prejacent|distractor_1_prejacent|competitor_prejacent,vertical,Which of the following four sentences best expresses what Lio meant with their utterance?,FALSE,the models put one foot in front of the other while wearing arrangements of fabric and complex hairstyles.,20966,2,,,4,competitor_prejacent
602,61,"Thank you for the survey opportunities, have a great day.",too_little,Graduated High-school,97473,1693490477187,1693490379714,female,20,English,the collection only had black and white clothes.|Lio was a photographer at model castings.|Lio has seen it.|the collection was not great.,the collection only had black and white clothes.|Lio was a photographer at model castings.|Lio has seen it.|the collection was not great.,distractor_2_prejacent|distractor_1_prejacent|competitor_prejacent|target_prejacent,vertical,Which of the following four sentences best expresses what Lio meant with their utterance?,FALSE,Lio has seen it.,14345,2,,,3,competitor_prejacent
620,74,none,irrelevant,Graduated College,136613,1693490568478,1693490431865,female,20,English,Lio does not want to talk about the fashion show.|there is an interesting event tomorrow at the same venue.|Lio was a photographer at model castings.|the collection only had black and white clothes.,Lio does not want to talk about the fashion show.|there is an interesting event tomorrow at the same venue.|Lio was a photographer at model castings.|the collection only had black and white clothes.,target_prejacent|competitor_prejacent|distractor_1_prejacent|distractor_2_prejacent,vertical,Which of the following four sentences best expresses what Lio meant with their utterance?,FALSE,there is an interesting event tomorrow at the same venue.,24820,2,,,2,competitor_prejacent
677,18,NA,baseline,Graduated High-school,78504,1693818617771,1693818539267,female,20,english,Lio was a photographer at model castings.|the collection only had black and white clothes.|the collection was not great. |Lio has seen it.,Lio was a photographer at model castings.|the collection only had black and white clothes.|the collection was not great. |Lio has seen it.,distractor_1_prejacent|distractor_2_prejacent|target_prejacent|competitor_prejacent,vertical,Which of the following four sentences best expresses what Lio meant with their utterance?,FALSE,Lio has seen it.,22011,1,,,4,competitor_prejacent
659,22,NA,irrelevant,Graduated High-school,60932,1693816969414,1693816908482,female,20,english,the collection was not great. |the collection only had black and white clothes.|Lio was a photographer at model castings.|Lio has seen it.,the collection was not great. |the collection only had black and white clothes.|Lio was a photographer at model castings.|Lio has seen it.,target_prejacent|distractor_2_prejacent|distractor_1_prejacent|competitor_prejacent,vertical,Which of the following four sentences best expresses what Lio meant with their utterance?,FALSE,Lio has seen it.,17546,1,,,4,competitor_prejacent
673,51,NA,irrelevant,Graduated College,287398,1693818354399,1693818067001,male,20,English,there is an interesting event tomorrow at the same venue.|Lio does not want to talk about the fashion show.|Lio was a photographer at model castings.|the collection only had black and white clothes.,there is an interesting event tomorrow at the same venue.|Lio does not want to talk about the fashion show.|Lio was a photographer at model castings.|the collection only had black and white clothes.,competitor_prejacent|target_prejacent|distractor_1_prejacent|distractor_2_prejacent,vertical,Which of the following four sentences best expresses what Lio meant with their utterance?,FALSE,there is an interesting event tomorrow at the same venue.,90902,1,,,1,competitor_prejacent
695,33,NA,irrelevant,Graduated High-school,153844,1693819111334,1693818957490,female,20,English,Lio was a photographer at model castings.|there is an interesting event tomorrow at the same venue.|the collection only had black and white clothes.|Lio does not want to talk about the fashion show.,Lio was a photographer at model castings.|there is an interesting event tomorrow at the same venue.|the collection only had black and white clothes.|Lio does not want to talk about the fashion show.,distractor_1_prejacent|competitor_prejacent|distractor_2_prejacent|target_prejacent,vertical,Which of the following four sentences best expresses what Lio meant with their utterance?,FALSE,Lio does not want to talk about the fashion show.,20451,2,,,4,target_prejacent
696,72,none,marked,Higher degree,333713,1693819115206,1693818781493,female,20,English,Lio was a photographer at model castings.|the collection showcased clothes that would not be well suited for every day life.|the models put one foot in front of the other while wearing arrangements of fabric and complex hairstyles.|the collection only had black and white clothes.,Lio was a photographer at model castings.|the collection showcased clothes that would not be well suited for every day life.|the models put one foot in front of the other while wearing arrangements of fabric and complex hairstyles.|the collection only had black and white clothes.,distractor_1_prejacent|target_prejacent|competitor_prejacent|distractor_2_prejacent,vertical,Which of the following four sentences best expresses what Lio meant with their utterance?,FALSE,the collection showcased clothes that would not be well suited for every day life.,109761,2,,,2,target_prejacent
759,25,NA,too_little,Graduated High-school,108080,1693821071689,1693820963609,male,20,English,the collection was too extravagant.|the collection was great.|the collection only had black and white clothes.|Lio was a photographer at model castings.,the collection was too extravagant.|the collection was great.|the collection only had black and white clothes.|Lio was a photographer at model castings.,competitor_prejacent|target_prejacent|distractor_2_prejacent|distractor_1_prejacent,vertical,Which of the following four sentences best expresses what Lio meant with their utterance?,FALSE,the collection was great.,12337,2,,,2,target_prejacent
761,32,The study was simple and easy to complete.,irrelevant,Graduated High-school,98025,1693821118314,1693821020289,male,20,English,there is an interesting event tomorrow at the same venue.|Lio was a photographer at model castings.|the collection only had black and white clothes.|Lio does not want to talk about the fashion show.,there is an interesting event tomorrow at the same venue.|Lio was a photographer at model castings.|the collection only had black and white clothes.|Lio does not want to talk about the fashion show.,competitor_prejacent|distractor_1_prejacent|distractor_2_prejacent|target_prejacent,vertical,Which of the following four sentences best expresses what Lio meant with their utterance?,FALSE,Lio does not want to talk about the fashion show.,20974,2,,,4,target_prejacent
788,31,NA,baseline,Graduated College,81516,1693821753890,1693821672374,male,20,English,the collection only had black and white clothes.|Lio was a photographer at model castings.|there is an interesting event tomorrow at the same venue.|Lio does not want to talk about the fashion show.,the collection only had black and white clothes.|Lio was a photographer at model castings.|there is an interesting event tomorrow at the same venue.|Lio does not want to talk about the fashion show.,distractor_2_prejacent|distractor_1_prejacent|competitor_prejacent|target_prejacent,vertical,Which of the following four sentences best expresses what Lio meant with their utterance?,FALSE,Lio does not want to talk about the fashion show.,17309,1,,,4,target_prejacent
460,29,NA,too_much,Graduated High-school,130132,1692826598957,1692826468825,male,19,English,the ads before the movie were excellent.|Jia does not want to talk about the movie.|your city often hosts movie festivals.|Jia once worked on a short film project herself.,the ads before the movie were excellent.|Jia does not want to talk about the movie.|your city often hosts movie festivals.|Jia once worked on a short film project herself.,competitor_prejacent|target_prejacent|distractor_2_prejacent|distractor_1_prejacent,vertical,Which of the following four sentences best expresses what Jia meant with their utterance?,FALSE,Jia does not want to talk about the movie.,25991,2,,,2,target_prejacent
493,21,NA,too_much,Graduated High-school,108167,1692861736493,1692861628326,male,19,English,your city often hosts movie festivals.|the movie was not very interesting.|Jia once worked on a short film project herself.|the movie was screened.,your city often hosts movie festivals.|the movie was not very interesting.|Jia once worked on a short film project herself.|the movie was screened.,distractor_2_prejacent|target_prejacent|distractor_1_prejacent|competitor_prejacent,vertical,Which of the following four sentences best expresses what Jia meant with their utterance?,FALSE,the movie was not very interesting.,9230,2,,,2,target_prejacent
518,31,"Memory attention checks are not allowed, no matter how simple they might be. Just FYI!",too_much,Graduated High-school,186692,1692861863464,1692861676772,female,19,English,your city often hosts movie festivals.|the movie played at the expected number of frames per second with a series of various scenes.|Jia once worked on a short film project herself.|the movie was very enjoyable because it was difficult to understand.,your city often hosts movie festivals.|the movie played at the expected number of frames per second with a series of various scenes.|Jia once worked on a short film project herself.|the movie was very enjoyable because it was difficult to understand.,distractor_2_prejacent|competitor_prejacent|distractor_1_prejacent|target_prejacent,vertical,Which of the following four sentences best expresses what Jia meant with their utterance?,FALSE,the movie played at the expected number of frames per second with a series of various scenes.,51452,2,,,2,competitor_prejacent
527,30,NA,baseline,Graduated College,86733,1692862087202,1692862000469,male,19,English,Jia once worked on a short film project herself.|the movie was not well-received.|the movie was well-received.|your city often hosts movie festivals.,Jia once worked on a short film project herself.|the movie was not well-received.|the movie was well-received.|your city often hosts movie festivals.,distractor_1_prejacent|competitor_prejacent|target_prejacent|distractor_2_prejacent,vertical,Which of the following four sentences best expresses what Jia meant with their utterance?,FALSE,the movie was well-received.,13770,2,,,3,target_prejacent
565,45,NA,too_much,Graduated High-school,149739,1693490035052,1693489885313,male,19,English,Jia once worked on a short film project herself.|the movie played at the expected number of frames per second with a series of various scenes.|your city often hosts movie festivals.|the movie was very enjoyable because it was difficult to understand.,Jia once worked on a short film project herself.|the movie played at the expected number of frames per second with a series of various scenes.|your city often hosts movie festivals.|the movie was very enjoyable because it was difficult to understand.,distractor_1_prejacent|competitor_prejacent|distractor_2_prejacent|target_prejacent,vertical,Which of the following four sentences best expresses what Jia meant with their utterance?,FALSE,the movie played at the expected number of frames per second with a series of various scenes.,40009,1,,,2,competitor_prejacent
584,47,I couldn't make sense of the replies very well,baseline,Graduated High-school,139352,1693490271197,1693490131845,male,19,English,Jia once worked on a short film project herself.|your city often hosts movie festivals.|the movie was not well-received.|the movie was well-received.,Jia once worked on a short film project herself.|your city often hosts movie festivals.|the movie was not well-received.|the movie was well-received.,distractor_1_prejacent|distractor_2_prejacent|competitor_prejacent|target_prejacent,vertical,Which of the following four sentences best expresses what Jia meant with their utterance?,FALSE,the movie was well-received.,21233,2,,,4,target_prejacent
607,33,NA,irrelevant,Graduated College,130357,1693490487017,1693490356660,male,19,English,Jia does not want to talk about the movie.|your city often hosts movie festivals.|the ads before the movie were excellent.|Jia once worked on a short film project herself.,Jia does not want to talk about the movie.|your city often hosts movie festivals.|the ads before the movie were excellent.|Jia once worked on a short film project herself.,target_prejacent|distractor_2_prejacent|competitor_prejacent|distractor_1_prejacent,vertical,Which of the following four sentences best expresses what Jia meant with their utterance?,FALSE,the ads before the movie were excellent.,9277,2,,,3,competitor_prejacent
649,68,NA,marked,Graduated College,117945,1693815810288,1693815692343,male,19,English,"Jia once worked on a short film project herself.|your city often hosts movie festivals.|the movie unintentionally caused the audience to not like the festival, e.g., because it was bad.|the movie intentionally caused the audience to not like the festival, e.g., because it contained an anti-festival message.","Jia once worked on a short film project herself.|your city often hosts movie festivals.|the movie unintentionally caused the audience to not like the festival, e.g., because it was bad.|the movie intentionally caused the audience to not like the festival, e.g., because it contained an anti-festival message.",distractor_1_prejacent|distractor_2_prejacent|target_prejacent|competitor_prejacent,vertical,Which of the following four sentences best expresses what Jia meant with their utterance?,FALSE,"the movie unintentionally caused the audience to not like the festival, e.g., because it was bad.",30996,2,,,3,target_prejacent
665,28,None,baseline,Graduated College,109267,1693817532358,1693817423091,female,19,English,your city often hosts movie festivals.|the movie was well-received.|Jia once worked on a short film project herself.|the movie was not well-received.,your city often hosts movie festivals.|the movie was well-received.|Jia once worked on a short film project herself.|the movie was not well-received.,distractor_2_prejacent|target_prejacent|distractor_1_prejacent|competitor_prejacent,vertical,Which of the following four sentences best expresses what Jia meant with their utterance?,FALSE,the movie was well-received.,12121,2,,,2,target_prejacent
683,33,NA,baseline,Graduated College,127268,1693818718159,1693818590891,male,19,English,your city often hosts movie festivals.|the movie was well-received.|the movie was not well-received.|Jia once worked on a short film project herself.,your city often hosts movie festivals.|the movie was well-received.|the movie was not well-received.|Jia once worked on a short film project herself.,distractor_2_prejacent|target_prejacent|competitor_prejacent|distractor_1_prejacent,vertical,Which of the following four sentences best expresses what Jia meant with their utterance?,FALSE,the movie was well-received.,24849,2,,,2,target_prejacent
689,28,NA,baseline,Graduated College,179399,1693818901207,1693818721808,male,19,English,Jia once worked on a short film project herself.|the movie was not well-received.|your city often hosts movie festivals.|the movie was well-received.,Jia once worked on a short film project herself.|the movie was not well-received.|your city often hosts movie festivals.|the movie was well-received.,distractor_1_prejacent|competitor_prejacent|distractor_2_prejacent|target_prejacent,vertical,Which of the following four sentences best expresses what Jia meant with their utterance?,FALSE,the movie was well-received.,30649,2,,,4,target_prejacent
697,35,NA,marked,Graduated High-school,98554,1693819232047,1693819133493,male,19,English,the movie was not very interesting.|your city often hosts movie festivals.|the movie was screened.|Jia once worked on a short film project herself.,the movie was not very interesting.|your city often hosts movie festivals.|the movie was screened.|Jia once worked on a short film project herself.,target_prejacent|distractor_2_prejacent|competitor_prejacent|distractor_1_prejacent,vertical,Which of the following four sentences best expresses what Jia meant with their utterance?,FALSE,the movie was screened.,38533,2,,,3,competitor_prejacent
752,42,NA,marked,Graduated High-school,128246,1693820967174,1693820838928,male,19,English,Jia once worked on a short film project herself.|your city often hosts movie festivals.|the movie played at the expected number of frames per second with a series of various scenes.|the movie was very enjoyable because it was difficult to understand.,Jia once worked on a short film project herself.|your city often hosts movie festivals.|the movie played at the expected number of frames per second with a series of various scenes.|the movie was very enjoyable because it was difficult to understand.,distractor_1_prejacent|distractor_2_prejacent|competitor_prejacent|target_prejacent,vertical,Which of the following four sentences best expresses what Jia meant with their utterance?,FALSE,the movie played at the expected number of frames per second with a series of various scenes.,24289,2,,,3,competitor_prejacent
766,48,NA,too_much,Graduated College,68042,1693821164497,1693821096455,male,19,English,the movie was very enjoyable because it was difficult to understand.|Jia once worked on a short film project herself.|your city often hosts movie festivals.|the movie played at the expected number of frames per second with a series of various scenes.,the movie was very enjoyable because it was difficult to understand.|Jia once worked on a short film project herself.|your city often hosts movie festivals.|the movie played at the expected number of frames per second with a series of various scenes.,target_prejacent|distractor_1_prejacent|distractor_2_prejacent|competitor_prejacent,vertical,Which of the following four sentences best expresses what Jia meant with their utterance?,FALSE,the movie played at the expected number of frames per second with a series of various scenes.,4915,2,,,4,competitor_prejacent
790,75,none,irrelevant,Higher degree,123259,1693821813876,1693821690617,male,19,English,Jia once worked on a short film project herself.|the movie was very enjoyable because it was difficult to understand.|the movie played at the expected number of frames per second with a series of various scenes.|your city often hosts movie festivals.,Jia once worked on a short film project herself.|the movie was very enjoyable because it was difficult to understand.|the movie played at the expected number of frames per second with a series of various scenes.|your city often hosts movie festivals.,distractor_1_prejacent|target_prejacent|competitor_prejacent|distractor_2_prejacent,vertical,Which of the following four sentences best expresses what Jia meant with their utterance?,FALSE,the movie played at the expected number of frames per second with a series of various scenes.,47171,2,,,3,competitor_prejacent
436,30,NA,marked,Higher degree,66748,1692802400555,1692802333807,female,18,English,"Kirby's poem unintentionally caused negative reactions, e.g. because the reading was chaotic.|Oliver and Kirby once co-wrote a poem for their literature class.|the poem was about alpine landscapes.|Kirby's poem intentionally caused negative reactions, e.g. because of its polarising content.","Kirby's poem unintentionally caused negative reactions, e.g. because the reading was chaotic.|Oliver and Kirby once co-wrote a poem for their literature class.|the poem was about alpine landscapes.|Kirby's poem intentionally caused negative reactions, e.g. because of its polarising content.",target_prejacent|distractor_1_prejacent|distractor_2_prejacent|competitor_prejacent,vertical,Which of the following four sentences best expresses what Oliver meant with their utterance?,FALSE,"Kirby's poem intentionally caused negative reactions, e.g. because of its polarising content.",17483,2,,,4,competitor_prejacent
440,23,NA,baseline,Graduated High-school,105947,1692802723358,1692802617411,male,18,English,"Kirby's poem intentionally caused negative reactions, e.g. because of its polarising content.|the poem was about alpine landscapes.|Oliver and Kirby once co-wrote a poem for their literature class.|Kirby's poem unintentionally caused negative reactions, e.g. because the reading was chaotic.","Kirby's poem intentionally caused negative reactions, e.g. because of its polarising content.|the poem was about alpine landscapes.|Oliver and Kirby once co-wrote a poem for their literature class.|Kirby's poem unintentionally caused negative reactions, e.g. because the reading was chaotic.",competitor_prejacent|distractor_2_prejacent|distractor_1_prejacent|target_prejacent,vertical,Which of the following four sentences best expresses what Oliver meant with their utterance?,FALSE,"Kirby's poem intentionally caused negative reactions, e.g. because of its polarising content.",34143,2,,,1,competitor_prejacent
452,32,NA,irrelevant,NA,111266,1692826352600,1692826241334,female,18,English,Kirby’s reading went excellent.|Oliver and Kirby once co-wrote a poem for their literature class.|the poem was about alpine landscapes.|Kirby’s reading went okay.,Kirby’s reading went excellent.|Oliver and Kirby once co-wrote a poem for their literature class.|the poem was about alpine landscapes.|Kirby’s reading went okay.,competitor_prejacent|distractor_1_prejacent|distractor_2_prejacent|target_prejacent,vertical,Which of the following four sentences best expresses what Oliver meant with their utterance?,FALSE,Kirby’s reading went okay.,28671,2,,,4,target_prejacent
473,64,Everything seemed ok,irrelevant,Graduated High-school,212715,1692826820840,1692826608125,male,18,English,the poem was about alpine landscapes.|Oliver does not want to talk about Kirby's poem.|Oliver and Kirby once co-wrote a poem for their literature class.|the venue was nice.,the poem was about alpine landscapes.|Oliver does not want to talk about Kirby's poem.|Oliver and Kirby once co-wrote a poem for their literature class.|the venue was nice.,distractor_2_prejacent|target_prejacent|distractor_1_prejacent|competitor_prejacent,vertical,Which of the following four sentences best expresses what Oliver meant with their utterance?,FALSE,the venue was nice.,15840,2,,,4,competitor_prejacent
474,36,Thank you,baseline,Graduated High-school,161375,1692826824442,1692826663067,male,18,English,Kirby’s reading went okay.|Oliver and Kirby once co-wrote a poem for their literature class.|the poem was about alpine landscapes.|Kirby’s reading went excellent.,Kirby’s reading went okay.|Oliver and Kirby once co-wrote a poem for their literature class.|the poem was about alpine landscapes.|Kirby’s reading went excellent.,target_prejacent|distractor_1_prejacent|distractor_2_prejacent|competitor_prejacent,vertical,Which of the following four sentences best expresses what Oliver meant with their utterance?,FALSE,Kirby’s reading went okay.,39785,2,,,1,target_prejacent
489,36,NA,baseline,Graduated College,102324,1692861712912,1692861610588,male,18,English,Kirby’s reading went okay.|Oliver and Kirby once co-wrote a poem for their literature class.|the poem was about alpine landscapes.|Kirby’s reading went excellent.,Kirby’s reading went okay.|Oliver and Kirby once co-wrote a poem for their literature class.|the poem was about alpine landscapes.|Kirby’s reading went excellent.,target_prejacent|distractor_1_prejacent|distractor_2_prejacent|competitor_prejacent,vertical,Which of the following four sentences best expresses what Oliver meant with their utterance?,FALSE,Kirby’s reading went okay.,28434,2,,,1,target_prejacent
501,59,NA,irrelevant,Higher degree,110457,1692861765783,1692861655326,male,18,English,Kirby's poetry was not good.|John uttered a series of words that were consistent in style with the what poetry is supposed to sound like.|Oliver and Kirby once co-wrote a poem for their literature class.|the poem was about alpine landscapes.,Kirby's poetry was not good.|John uttered a series of words that were consistent in style with the what poetry is supposed to sound like.|Oliver and Kirby once co-wrote a poem for their literature class.|the poem was about alpine landscapes.,target_prejacent|competitor_prejacent|distractor_1_prejacent|distractor_2_prejacent,vertical,Which of the following four sentences best expresses what Oliver meant with their utterance?,FALSE,John uttered a series of words that were consistent in style with the what poetry is supposed to sound like.,19812,2,,,2,competitor_prejacent
523,34,NA,too_little,Graduated College,133764,1692861920463,1692861786699,male,18,English,Oliver and Kirby once co-wrote a poem for their literature class.|John's poetry was not exceptional.|people heard John's reading.|the poem was about alpine landscapes.,Oliver and Kirby once co-wrote a poem for their literature class.|John's poetry was not exceptional.|people heard John's reading.|the poem was about alpine landscapes.,distractor_1_prejacent|target_prejacent|competitor_prejacent|distractor_2_prejacent,vertical,Which of the following four sentences best expresses what Oliver meant with their utterance?,FALSE,John's poetry was not exceptional.,24675,2,,,2,target_prejacent
572,46,no comments,too_little,Graduated College,57184,1693490105894,1693490048710,male,18,English,John uttered a series of words that were consistent in style with the what poetry is supposed to sound like.|the poem was about alpine landscapes.|Kirby's poetry was not good.|Oliver and Kirby once co-wrote a poem for their literature class.,John uttered a series of words that were consistent in style with the what poetry is supposed to sound like.|the poem was about alpine landscapes.|Kirby's poetry was not good.|Oliver and Kirby once co-wrote a poem for their literature class.,competitor_prejacent|distractor_2_prejacent|target_prejacent|distractor_1_prejacent,vertical,Which of the following four sentences best expresses what Oliver meant with their utterance?,FALSE,Kirby's poetry was not good.,20170,2,,,3,target_prejacent
610,25,NA,too_much,Graduated College,139055,1693490506255,1693490367200,female,18,English,"Kirby's poem unintentionally caused negative reactions, e.g. because the reading was chaotic.|Kirby's poem intentionally caused negative reactions, e.g. because of its polarising content.|Oliver and Kirby once co-wrote a poem for their literature class.|the poem was about alpine landscapes.","Kirby's poem unintentionally caused negative reactions, e.g. because the reading was chaotic.|Kirby's poem intentionally caused negative reactions, e.g. because of its polarising content.|Oliver and Kirby once co-wrote a poem for their literature class.|the poem was about alpine landscapes.",target_prejacent|competitor_prejacent|distractor_1_prejacent|distractor_2_prejacent,vertical,Which of the following four sentences best expresses what Oliver meant with their utterance?,FALSE,"Kirby's poem intentionally caused negative reactions, e.g. because of its polarising content.",38435,2,,,2,competitor_prejacent
619,33,None :),marked,Graduated High-school,76611,1693490554732,1693490478121,male,18,English,Oliver does not want to talk about Kirby's poem.|Oliver and Kirby once co-wrote a poem for their literature class.|the poem was about alpine landscapes.|the venue was nice.,Oliver does not want to talk about Kirby's poem.|Oliver and Kirby once co-wrote a poem for their literature class.|the poem was about alpine landscapes.|the venue was nice.,target_prejacent|distractor_1_prejacent|distractor_2_prejacent|competitor_prejacent,vertical,Which of the following four sentences best expresses what Oliver meant with their utterance?,FALSE,Oliver does not want to talk about Kirby's poem.,14904,2,,,1,target_prejacent
609,26,NA,irrelevant,Higher degree,148441,1693490505177,1693490356736,female,18,English,Oliver and Kirby once co-wrote a poem for their literature class.|the poem was about alpine landscapes.|Oliver does not want to talk about Kirby's poem.|the venue was nice.,Oliver and Kirby once co-wrote a poem for their literature class.|the poem was about alpine landscapes.|Oliver does not want to talk about Kirby's poem.|the venue was nice.,distractor_1_prejacent|distractor_2_prejacent|target_prejacent|competitor_prejacent,vertical,Which of the following four sentences best expresses what Oliver meant with their utterance?,FALSE,Oliver does not want to talk about Kirby's poem.,18227,2,,,3,target_prejacent
693,35,NA,too_much,Graduated High-school,173175,1693818973865,1693818800690,male,18,English,Kirby's poetry was not good.|the poem was about alpine landscapes.|John uttered a series of words that were consistent in style with the what poetry is supposed to sound like.|Oliver and Kirby once co-wrote a poem for their literature class.,Kirby's poetry was not good.|the poem was about alpine landscapes.|John uttered a series of words that were consistent in style with the what poetry is supposed to sound like.|Oliver and Kirby once co-wrote a poem for their literature class.,target_prejacent|distractor_2_prejacent|competitor_prejacent|distractor_1_prejacent,vertical,Which of the following four sentences best expresses what Oliver meant with their utterance?,FALSE,John uttered a series of words that were consistent in style with the what poetry is supposed to sound like.,85065,2,,,3,competitor_prejacent
698,55,NA,baseline,Graduated High-school,172539,1693819255440,1693819082901,male,18,English,Kirby’s reading went okay.|Kirby’s reading went excellent.|Oliver and Kirby once co-wrote a poem for their literature class.|the poem was about alpine landscapes.,Kirby’s reading went okay.|Kirby’s reading went excellent.|Oliver and Kirby once co-wrote a poem for their literature class.|the poem was about alpine landscapes.,target_prejacent|competitor_prejacent|distractor_1_prejacent|distractor_2_prejacent,vertical,Which of the following four sentences best expresses what Oliver meant with their utterance?,FALSE,Kirby’s reading went okay.,15826,2,,,1,target_prejacent
700,65,None,too_little,Graduated College,177252,1693819442041,1693819264789,female,18,English,people heard John's reading.|the poem was about alpine landscapes.|Oliver and Kirby once co-wrote a poem for their literature class.|John's poetry was not exceptional.,people heard John's reading.|the poem was about alpine landscapes.|Oliver and Kirby once co-wrote a poem for their literature class.|John's poetry was not exceptional.,competitor_prejacent|distractor_2_prejacent|distractor_1_prejacent|target_prejacent,vertical,Which of the following four sentences best expresses what Oliver meant with their utterance?,FALSE,people heard John's reading.,30411,2,,,1,competitor_prejacent
708,23,NA,irrelevant,Graduated College,75278,1693819649982,1693819574704,female,18,English,the poem was about alpine landscapes.|Oliver and Kirby once co-wrote a poem for their literature class.|Oliver does not want to talk about Kirby's poem.|the venue was nice.,the poem was about alpine landscapes.|Oliver and Kirby once co-wrote a poem for their literature class.|Oliver does not want to talk about Kirby's poem.|the venue was nice.,distractor_2_prejacent|distractor_1_prejacent|target_prejacent|competitor_prejacent,vertical,Which of the following four sentences best expresses what Oliver meant with their utterance?,FALSE,Oliver does not want to talk about Kirby's poem.,11645,2,,,3,target_prejacent
721,66,NA,too_little,Graduated College,99608,1693819972752,1693819873144,male,18,NA,people heard John's reading.|Oliver and Kirby once co-wrote a poem for their literature class.|John's poetry was not exceptional.|the poem was about alpine landscapes.,people heard John's reading.|Oliver and Kirby once co-wrote a poem for their literature class.|John's poetry was not exceptional.|the poem was about alpine landscapes.,competitor_prejacent|distractor_1_prejacent|target_prejacent|distractor_2_prejacent,vertical,Which of the following four sentences best expresses what Oliver meant with their utterance?,FALSE,Oliver and Kirby once co-wrote a poem for their literature class.,31741,2,,,2,distractor_1_prejacent
738,39,Thanks. Easy to follow along with.,too_little,Graduated College,119308,1693820437076,1693820317768,male,18,English,the venue was nice.|Oliver and Kirby once co-wrote a poem for their literature class.|Oliver does not want to talk about Kirby's poem.|the poem was about alpine landscapes.,the venue was nice.|Oliver and Kirby once co-wrote a poem for their literature class.|Oliver does not want to talk about Kirby's poem.|the poem was about alpine landscapes.,competitor_prejacent|distractor_1_prejacent|target_prejacent|distractor_2_prejacent,vertical,Which of the following four sentences best expresses what Oliver meant with their utterance?,FALSE,Oliver does not want to talk about Kirby's poem.,30272,2,,,3,target_prejacent
762,49,NA,too_little,Graduated College,43211,1693821131283,1693821088072,male,18,English,Kirby’s reading went okay.|Kirby’s reading went excellent.|the poem was about alpine landscapes.|Oliver and Kirby once co-wrote a poem for their literature class.,Kirby’s reading went okay.|Kirby’s reading went excellent.|the poem was about alpine landscapes.|Oliver and Kirby once co-wrote a poem for their literature class.,target_prejacent|competitor_prejacent|distractor_2_prejacent|distractor_1_prejacent,vertical,Which of the following four sentences best expresses what Oliver meant with their utterance?,FALSE,Kirby’s reading went okay.,5659,2,,,1,target_prejacent
