submission_id,age,comments,condition,education,experiment_duration,experiment_end_time,experiment_start_time,gender,item_id,languages,options,options_list,options_order,orientation,question,randomize,response,responseTime,trial_nr
472,36,NA,NA,Graduated College,65665,1692826810251,1692826744586,male,NA,English,NA,NA,NA,NA,Please type in your favorite animal which you picked before the start of the study in lower case in the text area below. Please don't type anything else.,NA,koala bear,6075,NA
508,34,NA,NA,Higher degree,181793,1692861803152,1692861621359,male,NA,english,NA,NA,NA,NA,Please type in your favorite animal which you picked before the start of the study in lower case in the text area below. Please don't type anything else.,NA,koala bear,40590,NA
509,29,NA,NA,Graduated High-school,209897,1692861809021,1692861599124,male,NA,English,NA,NA,NA,NA,Please type in your favorite animal which you picked before the start of the study in lower case in the text area below. Please don't type anything else.,NA,koala bear,16271,NA
443,63,Thank you!,NA,Graduated College,78406,1692826024867,1692825946461,female,NA,English,NA,NA,NA,NA,Please type in your favorite animal which you picked before the start of the study in lower case in the text area below. Please don't type anything else.,NA,Koala Bear,10592,NA
433,36,NA,NA,Higher degree,91538,1692802029459,1692801937921,female,NA,English,NA,NA,NA,NA,Please type in your favorite animal which you picked before the start of the study in lower case in the text area below. Please don't type anything else.,NA,Koala bear,10378,NA
434,38,NA,NA,Higher degree,72963,1692802099029,1692802026066,female,NA,English,NA,NA,NA,NA,Please type in your favorite animal which you picked before the start of the study in lower case in the text area below. Please don't type anything else.,NA,tiger,15413,NA
435,29,NA,NA,Graduated College,121418,1692802167815,1692802046397,female,NA,English,NA,NA,NA,NA,Please type in your favorite animal which you picked before the start of the study in lower case in the text area below. Please don't type anything else.,NA,dog,22969,NA
436,30,NA,NA,Higher degree,66748,1692802400555,1692802333807,female,NA,English,NA,NA,NA,NA,Please type in your favorite animal which you picked before the start of the study in lower case in the text area below. Please don't type anything else.,NA,koala bear,6285,NA
705,26,N/A,NA,Graduated High-school,76603,1693819602188,1693819525585,male,NA,English,NA,NA,NA,NA,Please type in your favorite animal which you picked before the start of the study in lower case in the text area below. Please don't type anything else.,NA,koala bear,15932,NA
437,21,none,NA,Graduated College,60063,1692802489877,1692802429814,female,NA,english,NA,NA,NA,NA,Please type in your favorite animal which you picked before the start of the study in lower case in the text area below. Please don't type anything else.,NA,koala bear,7112,NA
444,60,NA,NA,Graduated College,102221,1692826053473,1692825951252,female,NA,English,NA,NA,NA,NA,Please type in your favorite animal which you picked before the start of the study in lower case in the text area below. Please don't type anything else.,NA,koala bear,24049,NA
438,22,Sloths are chill,NA,Graduated High-school,106642,1692802614003,1692802507361,male,NA,English,NA,NA,NA,NA,Please type in your favorite animal which you picked before the start of the study in lower case in the text area below. Please don't type anything else.,NA,Sloth,9474,NA
439,55,NA,NA,Graduated College,173479,1692802678689,1692802505210,female,NA,English,NA,NA,NA,NA,Please type in your favorite animal which you picked before the start of the study in lower case in the text area below. Please don't type anything else.,NA,kowala bear,27993,NA
440,23,NA,NA,Graduated High-school,105947,1692802723358,1692802617411,male,NA,English,NA,NA,NA,NA,Please type in your favorite animal which you picked before the start of the study in lower case in the text area below. Please don't type anything else.,NA,sloth,30475,NA
441,24,NA,NA,Graduated College,50815,1692802892644,1692802841829,female,NA,NA,NA,NA,NA,NA,Please type in your favorite animal which you picked before the start of the study in lower case in the text area below. Please don't type anything else.,NA,turtle,10546,NA
445,30,NA,NA,Higher degree,143503,1692826149013,1692826005510,female,NA,English,NA,NA,NA,NA,Please type in your favorite animal which you picked before the start of the study in lower case in the text area below. Please don't type anything else.,NA,sloth,21519,NA
442,42,None,NA,Higher degree,81621,1692802968718,1692802887097,male,NA,English,NA,NA,NA,NA,Please type in your favorite animal which you picked before the start of the study in lower case in the text area below. Please don't type anything else.,NA,cat,14304,NA
446,38,NA,NA,Graduated College,127208,1692826176520,1692826049312,male,NA,English,NA,NA,NA,NA,Please type in your favorite animal which you picked before the start of the study in lower case in the text area below. Please don't type anything else.,NA,koala bear,14367,NA
447,26,NA,NA,Higher degree,74352,1692826204982,1692826130630,female,NA,English,NA,NA,NA,NA,Please type in your favorite animal which you picked before the start of the study in lower case in the text area below. Please don't type anything else.,NA,bear,14792,NA
448,26,NA,NA,Graduated High-school,55236,1692826217314,1692826162078,female,NA,English,NA,NA,NA,NA,Please type in your favorite animal which you picked before the start of the study in lower case in the text area below. Please don't type anything else.,NA,deer,10484,NA
455,21,NA,NA,Graduated High-school,87315,1692826478771,1692826391456,other,NA,English,NA,NA,NA,NA,Please type in your favorite animal which you picked before the start of the study in lower case in the text area below. Please don't type anything else.,NA,elephant,18912,NA
449,44,NA,NA,Graduated High-school,135113,1692826233938,1692826098825,male,NA,english,NA,NA,NA,NA,Please type in your favorite animal which you picked before the start of the study in lower case in the text area below. Please don't type anything else.,NA,sloth,12063,NA
450,32,NA,NA,Graduated College,75064,1692826248626,1692826173562,female,NA,english,NA,NA,NA,NA,Please type in your favorite animal which you picked before the start of the study in lower case in the text area below. Please don't type anything else.,NA,cat,11006,NA
451,44,NA,NA,Graduated College,126942,1692826351521,1692826224579,male,NA,english,NA,NA,NA,NA,Please type in your favorite animal which you picked before the start of the study in lower case in the text area below. Please don't type anything else.,NA,sloth,13504,NA
452,32,NA,NA,NA,111266,1692826352600,1692826241334,female,NA,English,NA,NA,NA,NA,Please type in your favorite animal which you picked before the start of the study in lower case in the text area below. Please don't type anything else.,NA,Koala bear,7963,NA
453,53,NA,NA,Higher degree,262775,1692826425169,1692826162394,female,NA,NA,NA,NA,NA,NA,Please type in your favorite animal which you picked before the start of the study in lower case in the text area below. Please don't type anything else.,NA,"a soho, monkie, bdaymonkey",49213,NA
454,28,NA,NA,Higher degree,78675,1692826457284,1692826378609,female,NA,English,NA,NA,NA,NA,Please type in your favorite animal which you picked before the start of the study in lower case in the text area below. Please don't type anything else.,NA,Sloth,30347,NA
456,40,"none, thank you!",NA,Graduated High-school,96306,1692826499281,1692826402975,female,NA,english,NA,NA,NA,NA,Please type in your favorite animal which you picked before the start of the study in lower case in the text area below. Please don't type anything else.,NA,sloth,10039,NA
457,49,NA,NA,Higher degree,52126,1692826566004,1692826513878,female,NA,English,NA,NA,NA,NA,Please type in your favorite animal which you picked before the start of the study in lower case in the text area below. Please don't type anything else.,NA,cat,9357,NA
458,25,NA,NA,Graduated High-school,63006,1692826578413,1692826515407,male,NA,English,NA,NA,NA,NA,Please type in your favorite animal which you picked before the start of the study in lower case in the text area below. Please don't type anything else.,NA,Sloth,5945,NA
459,NA,NA,NA,NA,33865,1692826595450,1692826561585,NA,NA,NA,NA,NA,NA,NA,Please type in your favorite animal which you picked before the start of the study in lower case in the text area below. Please don't type anything else.,NA,bear,9403,NA
460,29,NA,NA,Graduated High-school,130132,1692826598957,1692826468825,male,NA,English,NA,NA,NA,NA,Please type in your favorite animal which you picked before the start of the study in lower case in the text area below. Please don't type anything else.,NA,Koala bear,32279,NA
461,50,NA,NA,Graduated High-school,113412,1692826638001,1692826524589,male,NA,NA,NA,NA,NA,NA,Please type in your favorite animal which you picked before the start of the study in lower case in the text area below. Please don't type anything else.,NA,tiger,16311,NA
462,26,NA,NA,Graduated High-school,203357,1692826644336,1692826440979,male,NA,English,NA,NA,NA,NA,Please type in your favorite animal which you picked before the start of the study in lower case in the text area below. Please don't type anything else.,NA,sloth,19413,NA
463,36,NA,NA,Graduated High-school,188713,1692826646675,1692826457962,female,NA,English,NA,NA,NA,NA,Please type in your favorite animal which you picked before the start of the study in lower case in the text area below. Please don't type anything else.,NA,Koala Bear,56798,NA
464,45,NA,NA,Graduated College,101414,1692826669782,1692826568368,male,NA,English,NA,NA,NA,NA,Please type in your favorite animal which you picked before the start of the study in lower case in the text area below. Please don't type anything else.,NA,sloth,7869,NA
465,29,NA,NA,Graduated College,97748,1692826688054,1692826590306,female,NA,English,NA,NA,NA,NA,Please type in your favorite animal which you picked before the start of the study in lower case in the text area below. Please don't type anything else.,NA,Kola,12649,NA
466,56,NA,NA,Graduated High-school,71116,1692826708768,1692826637652,female,NA,English,NA,NA,NA,NA,Please type in your favorite animal which you picked before the start of the study in lower case in the text area below. Please don't type anything else.,NA,dog,10184,NA
467,23,NA,NA,Graduated High-school,174390,1692826731452,1692826557062,female,NA,English,NA,NA,NA,NA,Please type in your favorite animal which you picked before the start of the study in lower case in the text area below. Please don't type anything else.,NA,Zebra,16287,NA
468,31,NA,NA,Graduated High-school,71436,1692826768419,1692826696983,female,NA,English,NA,NA,NA,NA,Please type in your favorite animal which you picked before the start of the study in lower case in the text area below. Please don't type anything else.,NA,panda,10087,NA
469,20,NA,NA,Graduated High-school,67557,1692826773013,1692826705456,female,NA,english,NA,NA,NA,NA,Please type in your favorite animal which you picked before the start of the study in lower case in the text area below. Please don't type anything else.,NA,hippo,8774,NA
470,23,NA,NA,Graduated College,38654,1692826782956,1692826744302,male,NA,English,NA,NA,NA,NA,Please type in your favorite animal which you picked before the start of the study in lower case in the text area below. Please don't type anything else.,NA,Cat,9933,NA
473,64,Everything seemed ok,NA,Graduated High-school,212715,1692826820840,1692826608125,male,NA,English,NA,NA,NA,NA,Please type in your favorite animal which you picked before the start of the study in lower case in the text area below. Please don't type anything else.,NA,koala bear,8754,NA
476,29,NA,NA,Graduated College,39482,1692826859790,1692826820308,male,NA,english,NA,NA,NA,NA,Please type in your favorite animal which you picked before the start of the study in lower case in the text area below. Please don't type anything else.,NA,tiger,10638,NA
471,40,n/a,NA,Graduated College,71323,1692826809072,1692826737749,male,NA,NA,NA,NA,NA,NA,Please type in your favorite animal which you picked before the start of the study in lower case in the text area below. Please don't type anything else.,NA,sloth,13600,NA
474,36,Thank you,NA,Graduated High-school,161375,1692826824442,1692826663067,male,NA,English,NA,NA,NA,NA,Please type in your favorite animal which you picked before the start of the study in lower case in the text area below. Please don't type anything else.,NA,Sloth,9842,NA
475,26,NA,NA,Graduated High-school,106938,1692826843299,1692826736361,female,NA,English,NA,NA,NA,NA,Please type in your favorite animal which you picked before the start of the study in lower case in the text area below. Please don't type anything else.,NA,sloth,8325,NA
478,29,None,NA,Graduated High-school,136228,1692826875963,1692826739735,male,NA,English,NA,NA,NA,NA,Please type in your favorite animal which you picked before the start of the study in lower case in the text area below. Please don't type anything else.,NA,koala,25705,NA
480,37,None,NA,Graduated High-school,221448,1692826906635,1692826685187,male,NA,English,NA,NA,NA,NA,Please type in your favorite animal which you picked before the start of the study in lower case in the text area below. Please don't type anything else.,NA,koala bear,67330,NA
482,24,NA,NA,Graduated High-school,182332,1692826922328,1692826739996,female,NA,English,NA,NA,NA,NA,Please type in your favorite animal which you picked before the start of the study in lower case in the text area below. Please don't type anything else.,NA,koala bear,9982,NA
477,36,NA,NA,Graduated College,51158,1692826864992,1692826813834,female,NA,english,NA,NA,NA,NA,Please type in your favorite animal which you picked before the start of the study in lower case in the text area below. Please don't type anything else.,NA,rat,11854,NA
479,26,NA,NA,Graduated High-school,84065,1692826900196,1692826816131,male,NA,Vietnamese,NA,NA,NA,NA,Please type in your favorite animal which you picked before the start of the study in lower case in the text area below. Please don't type anything else.,NA,koala bear,7374,NA
481,25,Was this study written by someone who speaks English?,NA,Higher degree,133678,1692826908048,1692826774370,female,NA,English,NA,NA,NA,NA,Please type in your favorite animal which you picked before the start of the study in lower case in the text area below. Please don't type anything else.,NA,tiger,18965,NA
483,26,NA,NA,Graduated College,74145,1692861670502,1692861596357,male,NA,English,NA,NA,NA,NA,Please type in your favorite animal which you picked before the start of the study in lower case in the text area below. Please don't type anything else.,NA,penguin,10464,NA
484,40,NA,NA,Graduated High-school,111313,1692861688123,1692861576810,male,NA,English,NA,NA,NA,NA,Please type in your favorite animal which you picked before the start of the study in lower case in the text area below. Please don't type anything else.,NA,koala bear,22990,NA
485,28,NA,NA,Graduated College,95734,1692861693460,1692861597726,male,NA,English,NA,NA,NA,NA,Please type in your favorite animal which you picked before the start of the study in lower case in the text area below. Please don't type anything else.,NA,tiger,11585,NA
491,30,NA,NA,Graduated College,49731,1692861727212,1692861677481,male,NA,English,NA,NA,NA,NA,Please type in your favorite animal which you picked before the start of the study in lower case in the text area below. Please don't type anything else.,NA,koala bear,2405,NA
511,25,n/a,NA,Graduated College,197738,1692861819254,1692861621516,female,NA,English,NA,NA,NA,NA,Please type in your favorite animal which you picked before the start of the study in lower case in the text area below. Please don't type anything else.,NA,sloth,75321,NA
486,50,NA,NA,Graduated College,93227,1692861701600,1692861608373,female,NA,english,NA,NA,NA,NA,Please type in your favorite animal which you picked before the start of the study in lower case in the text area below. Please don't type anything else.,NA,sloth,8414,NA
487,27,NA,NA,Graduated High-school,54088,1692861708496,1692861654408,female,NA,English,NA,NA,NA,NA,Please type in your favorite animal which you picked before the start of the study in lower case in the text area below. Please don't type anything else.,NA,cat,7590,NA
488,21,NA,NA,Graduated High-school,95773,1692861708699,1692861612926,male,NA,English,NA,NA,NA,NA,Please type in your favorite animal which you picked before the start of the study in lower case in the text area below. Please don't type anything else.,NA,sloth,26672,NA
489,36,NA,NA,Graduated College,102324,1692861712912,1692861610588,male,NA,English,NA,NA,NA,NA,Please type in your favorite animal which you picked before the start of the study in lower case in the text area below. Please don't type anything else.,NA,koala,9628,NA
494,40,NA,NA,Graduated High-school,125344,1692861739858,1692861614514,male,NA,English,NA,NA,NA,NA,Please type in your favorite animal which you picked before the start of the study in lower case in the text area below. Please don't type anything else.,NA,sloth,31689,NA
499,49,NA,NA,Graduated High-school,97989,1692861759603,1692861661614,female,NA,English,NA,NA,NA,NA,Please type in your favorite animal which you picked before the start of the study in lower case in the text area below. Please don't type anything else.,NA,koala bear,17571,NA
490,46,NA,NA,Graduated College,74764,1692861720164,1692861645400,male,NA,English,NA,NA,NA,NA,Please type in your favorite animal which you picked before the start of the study in lower case in the text area below. Please don't type anything else.,NA,ant-eater,9037,NA
492,24,NA,NA,Higher degree,73952,1692861728049,1692861654097,female,NA,english,NA,NA,NA,NA,Please type in your favorite animal which you picked before the start of the study in lower case in the text area below. Please don't type anything else.,NA,sloth,11084,NA
493,21,NA,NA,Graduated High-school,108167,1692861736493,1692861628326,male,NA,English,NA,NA,NA,NA,Please type in your favorite animal which you picked before the start of the study in lower case in the text area below. Please don't type anything else.,NA,koala bear,20235,NA
495,26,NA,NA,Graduated High-school,44473,1692861741334,1692861696861,male,NA,English,NA,NA,NA,NA,Please type in your favorite animal which you picked before the start of the study in lower case in the text area below. Please don't type anything else.,NA,sloth,3922,NA
496,56,NA,NA,Graduated High-school,153408,1692861741528,1692861588120,male,NA,English,NA,NA,NA,NA,Please type in your favorite animal which you picked before the start of the study in lower case in the text area below. Please don't type anything else.,NA,Cat,10173,NA
506,38,NA,NA,Graduated College,193703,1692861799602,1692861605899,male,NA,English,NA,NA,NA,NA,Please type in your favorite animal which you picked before the start of the study in lower case in the text area below. Please don't type anything else.,NA,panda,16275,NA
497,33,NA,NA,Graduated High-school,90485,1692861751843,1692861661358,male,NA,english,NA,NA,NA,NA,Please type in your favorite animal which you picked before the start of the study in lower case in the text area below. Please don't type anything else.,NA,dog,16513,NA
502,43,NA,NA,Graduated College,118147,1692861773262,1692861655115,male,NA,eng,NA,NA,NA,NA,Please type in your favorite animal which you picked before the start of the study in lower case in the text area below. Please don't type anything else.,NA,sloth,15187,NA
498,35,NA,NA,Graduated High-school,121448,1692861755174,1692861633726,female,NA,English,NA,NA,NA,NA,Please type in your favorite animal which you picked before the start of the study in lower case in the text area below. Please don't type anything else.,NA,rabbit,13451,NA
500,60,none,NA,Higher degree,176829,1692861762548,1692861585719,male,NA,English,NA,NA,NA,NA,Please type in your favorite animal which you picked before the start of the study in lower case in the text area below. Please don't type anything else.,NA,sloth,31398,NA
517,42,NA,NA,Graduated High-school,212965,1692861857600,1692861644635,male,NA,English,NA,NA,NA,NA,Please type in your favorite animal which you picked before the start of the study in lower case in the text area below. Please don't type anything else.,NA,koala,14053,NA
520,56,NA,NA,Higher degree,43140,1692861888335,1692861845195,female,NA,english,NA,NA,NA,NA,Please type in your favorite animal which you picked before the start of the study in lower case in the text area below. Please don't type anything else.,NA,kola bear,5710,NA
501,59,NA,NA,Higher degree,110457,1692861765783,1692861655326,male,NA,English,NA,NA,NA,NA,Please type in your favorite animal which you picked before the start of the study in lower case in the text area below. Please don't type anything else.,NA,sloth,11597,NA
504,26,none,NA,Graduated College,59377,1692861784503,1692861725126,male,NA,english,NA,NA,NA,NA,Please type in your favorite animal which you picked before the start of the study in lower case in the text area below. Please don't type anything else.,NA,dog,12134,NA
507,28,NA,NA,Graduated High-school,81214,1692861801636,1692861720422,male,NA,NA,NA,NA,NA,NA,Please type in your favorite animal which you picked before the start of the study in lower case in the text area below. Please don't type anything else.,NA,cat,16356,NA
515,24,NA,NA,Graduated High-school,110337,1692861846852,1692861736515,male,NA,English,NA,NA,NA,NA,Please type in your favorite animal which you picked before the start of the study in lower case in the text area below. Please don't type anything else.,NA,sloth,7326,NA
524,48,NA,NA,Higher degree,321411,1692861947478,1692861626067,female,NA,English,NA,NA,NA,NA,Please type in your favorite animal which you picked before the start of the study in lower case in the text area below. Please don't type anything else.,NA,cat,41845,NA
503,35,Koalas are very cute,NA,Graduated College,127095,1692861782354,1692861655259,female,NA,english,NA,NA,NA,NA,Please type in your favorite animal which you picked before the start of the study in lower case in the text area below. Please don't type anything else.,NA,koala bear,65382,NA
505,33,Everything was smooth,NA,Graduated High-school,134142,1692861785857,1692861651715,male,NA,English,NA,NA,NA,NA,Please type in your favorite animal which you picked before the start of the study in lower case in the text area below. Please don't type anything else.,NA,sloth,12509,NA
510,72,NA,NA,Graduated High-school,166028,1692861814490,1692861648462,female,NA,English,NA,NA,NA,NA,Please type in your favorite animal which you picked before the start of the study in lower case in the text area below. Please don't type anything else.,NA,lion,10053,NA
513,32,NA,NA,Graduated High-school,184904,1692861828831,1692861643927,male,NA,"English, Spanish.",NA,NA,NA,NA,Please type in your favorite animal which you picked before the start of the study in lower case in the text area below. Please don't type anything else.,NA,turtle,42193,NA
514,26,NA,NA,Graduated High-school,187842,1692861846755,1692861658913,female,NA,english,NA,NA,NA,NA,Please type in your favorite animal which you picked before the start of the study in lower case in the text area below. Please don't type anything else.,NA,sloth,94236,NA
512,49,NA,NA,Graduated College,175284,1692861822958,1692861647674,female,NA,English,NA,NA,NA,NA,Please type in your favorite animal which you picked before the start of the study in lower case in the text area below. Please don't type anything else.,NA,koala bear,25269,NA
516,33,NA,NA,Higher degree,203468,1692861844703,1692861641235,male,NA,NA,NA,NA,NA,NA,Please type in your favorite animal which you picked before the start of the study in lower case in the text area below. Please don't type anything else.,NA,koala bear,4879,NA
518,31,"Memory attention checks are not allowed, no matter how simple they might be. Just FYI!",NA,Graduated High-school,186692,1692861863464,1692861676772,female,NA,English,NA,NA,NA,NA,Please type in your favorite animal which you picked before the start of the study in lower case in the text area below. Please don't type anything else.,NA,sloth,10562,NA
519,37,NA,NA,Graduated College,279743,1692861879396,1692861599653,female,NA,English,NA,NA,NA,NA,Please type in your favorite animal which you picked before the start of the study in lower case in the text area below. Please don't type anything else.,NA,koala bear,93034,NA
522,52,NA,NA,Higher degree,240661,1692861892980,1692861652319,female,NA,English,NA,NA,NA,NA,Please type in your favorite animal which you picked before the start of the study in lower case in the text area below. Please don't type anything else.,NA,koala,4976,NA
521,66,I didn't see a place to pick an animal. I put cat to get through study.,NA,Graduated College,309150,1692861891865,1692861582715,female,NA,English,NA,NA,NA,NA,Please type in your favorite animal which you picked before the start of the study in lower case in the text area below. Please don't type anything else.,NA,cat,25240,NA
523,34,NA,NA,Graduated College,133764,1692861920463,1692861786699,male,NA,English,NA,NA,NA,NA,Please type in your favorite animal which you picked before the start of the study in lower case in the text area below. Please don't type anything else.,NA,koala bear,16259,NA
525,38,N/A,NA,Graduated High-school,366137,1692861986489,1692861620352,male,NA,English,NA,NA,NA,NA,Please type in your favorite animal which you picked before the start of the study in lower case in the text area below. Please don't type anything else.,NA,koala bear,35787,NA
526,53,Everything worked well. Thank you!,NA,Graduated College,194382,1692862028245,1692861833863,female,NA,English,NA,NA,NA,NA,Please type in your favorite animal which you picked before the start of the study in lower case in the text area below. Please don't type anything else.,NA,koala bear,60779,NA
527,30,NA,NA,Graduated College,86733,1692862087202,1692862000469,male,NA,English,NA,NA,NA,NA,Please type in your favorite animal which you picked before the start of the study in lower case in the text area below. Please don't type anything else.,NA,kuala bear,14850,NA
528,38,NA,NA,Higher degree,167429,1692862095393,1692861927964,female,NA,English,NA,NA,NA,NA,Please type in your favorite animal which you picked before the start of the study in lower case in the text area below. Please don't type anything else.,NA,koala bear,9563,NA
529,22,good,NA,Graduated College,261571,1692862132869,1692861871298,male,NA,english,NA,NA,NA,NA,Please type in your favorite animal which you picked before the start of the study in lower case in the text area below. Please don't type anything else.,NA,king,57955,NA
530,44,NA,NA,Graduated College,168202,1692862411350,1692862243148,female,NA,English,NA,NA,NA,NA,Please type in your favorite animal which you picked before the start of the study in lower case in the text area below. Please don't type anything else.,NA,sloth,29723,NA
531,26,None,NA,Graduated College,178071,1692862301842,1692862123771,male,NA,English,NA,NA,NA,NA,Please type in your favorite animal which you picked before the start of the study in lower case in the text area below. Please don't type anything else.,NA,koala bear,33223,NA
532,43,NA,NA,Graduated High-school,1197821,1692862809978,1692861612157,female,NA,English,NA,NA,NA,NA,Please type in your favorite animal which you picked before the start of the study in lower case in the text area below. Please don't type anything else.,NA,sloth,9590,NA
533,42,NA,NA,Graduated College,185994,1692863250555,1692863064561,female,NA,English,NA,NA,NA,NA,Please type in your favorite animal which you picked before the start of the study in lower case in the text area below. Please don't type anything else.,NA,koala bear,4763,NA
534,66,NA,NA,Graduated College,194476,1692863208647,1692863014171,female,NA,NA,NA,NA,NA,NA,Please type in your favorite animal which you picked before the start of the study in lower case in the text area below. Please don't type anything else.,NA,ant eater,16630,NA
538,30,NA,NA,Graduated College,44827,1693489923679,1693489878852,male,NA,english,NA,NA,NA,NA,Please type in your favorite animal which you picked before the start of the study in lower case in the text area below. Please don't type anything else.,NA,penguin,7756,NA
539,37,NA,NA,Graduated College,43267,1693489923648,1693489880381,male,NA,English,NA,NA,NA,NA,Please type in your favorite animal which you picked before the start of the study in lower case in the text area below. Please don't type anything else.,NA,cat,5539,NA
540,38,NA,NA,Graduated High-school,60234,1693489953738,1693489893504,male,NA,english,NA,NA,NA,NA,Please type in your favorite animal which you picked before the start of the study in lower case in the text area below. Please don't type anything else.,NA,dog,8168,NA
541,40,n/a,NA,Graduated High-school,76871,1693489956635,1693489879764,male,NA,NA,NA,NA,NA,NA,Please type in your favorite animal which you picked before the start of the study in lower case in the text area below. Please don't type anything else.,NA,cat,11068,NA
542,36,Thanks!,NA,Higher degree,83936,1693489965897,1693489881961,male,NA,english,NA,NA,NA,NA,Please type in your favorite animal which you picked before the start of the study in lower case in the text area below. Please don't type anything else.,NA,sloth,9531,NA
551,41,thank you,NA,Graduated College,106241,1693489993343,1693489887102,male,NA,English,NA,NA,NA,NA,Please type in your favorite animal which you picked before the start of the study in lower case in the text area below. Please don't type anything else.,NA,lion,11467,NA
543,46,weird study,NA,Graduated College,92446,1693489973147,1693489880701,male,NA,English,NA,NA,NA,NA,Please type in your favorite animal which you picked before the start of the study in lower case in the text area below. Please don't type anything else.,NA,elephant,14335,NA
544,36,NA,NA,Graduated High-school,91821,1693489974164,1693489882343,male,NA,English,NA,NA,NA,NA,Please type in your favorite animal which you picked before the start of the study in lower case in the text area below. Please don't type anything else.,NA,Cat,18584,NA
545,47,None,NA,Graduated College,95610,1693489976178,1693489880569,female,NA,English,NA,NA,NA,NA,Please type in your favorite animal which you picked before the start of the study in lower case in the text area below. Please don't type anything else.,NA,koala,10414,NA
546,37,NA,NA,Graduated College,88781,1693489977619,1693489888838,female,NA,English,NA,NA,NA,NA,Please type in your favorite animal which you picked before the start of the study in lower case in the text area below. Please don't type anything else.,NA,cat,13555,NA
547,31,NA,NA,Graduated College,83675,1693489978210,1693489894535,female,NA,English,NA,NA,NA,NA,Please type in your favorite animal which you picked before the start of the study in lower case in the text area below. Please don't type anything else.,NA,dog,22840,NA
548,38,NA,NA,Higher degree,102766,1693489985385,1693489882619,female,NA,English,NA,NA,NA,NA,Please type in your favorite animal which you picked before the start of the study in lower case in the text area below. Please don't type anything else.,NA,Sloth,32103,NA
549,32,NA,NA,Graduated College,112637,1693489986697,1693489874060,male,NA,English,NA,NA,NA,NA,Please type in your favorite animal which you picked before the start of the study in lower case in the text area below. Please don't type anything else.,NA,sloth,12796,NA
550,60,NA,NA,Graduated College,101775,1693489986887,1693489885112,female,NA,english,NA,NA,NA,NA,Please type in your favorite animal which you picked before the start of the study in lower case in the text area below. Please don't type anything else.,NA,zebra,17215,NA
567,36,NA,NA,Higher degree,55696,1693490040668,1693489984972,male,NA,English,NA,NA,NA,NA,Please type in your favorite animal which you picked before the start of the study in lower case in the text area below. Please don't type anything else.,NA,Sloth,5333,NA
571,48,n/a,NA,Graduated College,187278,1693490085013,1693489897735,male,NA,English,NA,NA,NA,NA,Please type in your favorite animal which you picked before the start of the study in lower case in the text area below. Please don't type anything else.,NA,sloth,30881,NA
552,39,NA,NA,Graduated High-school,85030,1693489997554,1693489912524,male,NA,english,NA,NA,NA,NA,Please type in your favorite animal which you picked before the start of the study in lower case in the text area below. Please don't type anything else.,NA,sloth,13873,NA
555,49,NA,NA,Graduated High-school,103734,1693489998677,1693489894943,male,NA,English,NA,NA,NA,NA,Please type in your favorite animal which you picked before the start of the study in lower case in the text area below. Please don't type anything else.,NA,sloth,11126,NA
557,26,NA,NA,Graduated College,124118,1693490003405,1693489879287,male,NA,English,NA,NA,NA,NA,Please type in your favorite animal which you picked before the start of the study in lower case in the text area below. Please don't type anything else.,NA,koala,40758,NA
559,26,NA,NA,Graduated College,135261,1693490008507,1693489873246,male,NA,English,NA,NA,NA,NA,Please type in your favorite animal which you picked before the start of the study in lower case in the text area below. Please don't type anything else.,NA,koala bear,60583,NA
560,71,NA,NA,Graduated College,133646,1693490018065,1693489884419,male,NA,english,NA,NA,NA,NA,Please type in your favorite animal which you picked before the start of the study in lower case in the text area below. Please don't type anything else.,NA,rabbit,16505,NA
553,58,NA,NA,Higher degree,114735,1693489998635,1693489883900,male,NA,English,NA,NA,NA,NA,Please type in your favorite animal which you picked before the start of the study in lower case in the text area below. Please don't type anything else.,NA,koala bear,13555,NA
554,48,NA,NA,Graduated High-school,110327,1693489997435,1693489887108,female,NA,englsh,NA,NA,NA,NA,Please type in your favorite animal which you picked before the start of the study in lower case in the text area below. Please don't type anything else.,NA,na,20124,NA
556,47,I didn't get to choose an animal before the study.,NA,Graduated High-school,105345,1693490001616,1693489896271,female,NA,English`,NA,NA,NA,NA,Please type in your favorite animal which you picked before the start of the study in lower case in the text area below. Please don't type anything else.,NA,rabbit,19478,NA
565,45,NA,NA,Graduated High-school,149739,1693490035052,1693489885313,male,NA,English,NA,NA,NA,NA,Please type in your favorite animal which you picked before the start of the study in lower case in the text area below. Please don't type anything else.,NA,koala bear,19738,NA
573,39,NA,NA,Graduated High-school,222646,1693490110408,1693489887762,male,NA,English,NA,NA,NA,NA,Please type in your favorite animal which you picked before the start of the study in lower case in the text area below. Please don't type anything else.,NA,tiger,22822,NA
558,32,NA,NA,Graduated College,77613,1693490005971,1693489928358,male,NA,English,NA,NA,NA,NA,Please type in your favorite animal which you picked before the start of the study in lower case in the text area below. Please don't type anything else.,NA,koala bear,13338,NA
561,24,No comments,NA,Graduated College,123676,1693490019621,1693489895945,male,NA,English,NA,NA,NA,NA,Please type in your favorite animal which you picked before the start of the study in lower case in the text area below. Please don't type anything else.,NA,cat,27986,NA
563,36,Thank you,NA,Graduated High-school,138362,1693490022445,1693489884083,female,NA,English,NA,NA,NA,NA,Please type in your favorite animal which you picked before the start of the study in lower case in the text area below. Please don't type anything else.,NA,sloth,21708,NA
574,48,NA,NA,Graduated College,113750,1693490109665,1693489995915,male,NA,English,NA,NA,NA,NA,Please type in your favorite animal which you picked before the start of the study in lower case in the text area below. Please don't type anything else.,NA,koala-bear,21112,NA
577,35,NA,NA,Graduated College,122835,1693490126155,1693490003320,male,NA,English,NA,NA,NA,NA,Please type in your favorite animal which you picked before the start of the study in lower case in the text area below. Please don't type anything else.,NA,sloth,15340,NA
617,50,N/A,NA,Graduated High-school,165657,1693490541937,1693490376280,male,NA,NA,NA,NA,NA,NA,Please type in your favorite animal which you picked before the start of the study in lower case in the text area below. Please don't type anything else.,NA,sloth,44103,NA
562,47,NA,NA,Graduated High-school,146042,1693490024039,1693489877997,male,NA,english,NA,NA,NA,NA,Please type in your favorite animal which you picked before the start of the study in lower case in the text area below. Please don't type anything else.,NA,koala bear,61266,NA
570,66,NA,NA,Graduated High-school,178560,1693490073349,1693489894789,female,NA,english,NA,NA,NA,NA,Please type in your favorite animal which you picked before the start of the study in lower case in the text area below. Please don't type anything else.,NA,koala,21471,NA
564,57,NA,NA,Graduated College,109273,1693490006675,1693489897402,female,NA,English,NA,NA,NA,NA,Please type in your favorite animal which you picked before the start of the study in lower case in the text area below. Please don't type anything else.,NA,sloth,14086,NA
569,30,NA,NA,Graduated College,181205,1693490057500,1693489876295,male,NA,english,NA,NA,NA,NA,Please type in your favorite animal which you picked before the start of the study in lower case in the text area below. Please don't type anything else.,NA,cat,65436,NA
572,46,no comments,NA,Graduated College,57184,1693490105894,1693490048710,male,NA,English,NA,NA,NA,NA,Please type in your favorite animal which you picked before the start of the study in lower case in the text area below. Please don't type anything else.,NA,koala bear,4338,NA
580,34,NA,NA,Graduated High-school,296720,1693490164000,1693489867280,male,NA,NA,NA,NA,NA,NA,Please type in your favorite animal which you picked before the start of the study in lower case in the text area below. Please don't type anything else.,NA,dog,8840,NA
566,47,NA,NA,Graduated College,150644,1693490038158,1693489887514,female,NA,English,NA,NA,NA,NA,Please type in your favorite animal which you picked before the start of the study in lower case in the text area below. Please don't type anything else.,NA,koala bear,77366,NA
575,36,NA,NA,Graduated High-school,72184,1693490121106,1693490048922,male,NA,English,NA,NA,NA,NA,Please type in your favorite animal which you picked before the start of the study in lower case in the text area below. Please don't type anything else.,NA,dog,9736,NA
568,44,NA,NA,Graduated High-school,159855,1693493728100,1693493568245,female,NA,english,NA,NA,NA,NA,Please type in your favorite animal which you picked before the start of the study in lower case in the text area below. Please don't type anything else.,NA,sloth,61645,NA
576,47,NA,NA,Graduated High-school,242090,1693490121582,1693489879492,male,NA,English,NA,NA,NA,NA,Please type in your favorite animal which you picked before the start of the study in lower case in the text area below. Please don't type anything else.,NA,cat,40330,NA
578,66,thanks,NA,Higher degree,275141,1693490148393,1693489873252,male,NA,English,NA,NA,NA,NA,Please type in your favorite animal which you picked before the start of the study in lower case in the text area below. Please don't type anything else.,NA,sloth,6088,NA
579,73,Thanks,NA,Graduated High-school,126102,1693490158754,1693490032652,male,NA,English,NA,NA,NA,NA,Please type in your favorite animal which you picked before the start of the study in lower case in the text area below. Please don't type anything else.,NA,koala,13909,NA
581,35,NA,NA,Graduated High-school,118844,1693490166131,1693490047287,female,NA,English,NA,NA,NA,NA,Please type in your favorite animal which you picked before the start of the study in lower case in the text area below. Please don't type anything else.,NA,monkey,20737,NA
582,74,NA,NA,Higher degree,311260,1693490220557,1693489909297,male,NA,english,NA,NA,NA,NA,Please type in your favorite animal which you picked before the start of the study in lower case in the text area below. Please don't type anything else.,NA,ant-eater,40638,NA
583,19,NA,NA,Did not graduate High-school,285726,1693490222884,1693489937158,male,NA,english,NA,NA,NA,NA,Please type in your favorite animal which you picked before the start of the study in lower case in the text area below. Please don't type anything else.,NA,i dont recall selecting any sort of animal,95521,NA
584,47,I couldn't make sense of the replies very well,NA,Graduated High-school,139352,1693490271197,1693490131845,male,NA,English,NA,NA,NA,NA,Please type in your favorite animal which you picked before the start of the study in lower case in the text area below. Please don't type anything else.,NA,koala bear,7830,NA
585,30,NA,NA,Graduated College,44816,1693490402020,1693490357204,female,NA,English,NA,NA,NA,NA,Please type in your favorite animal which you picked before the start of the study in lower case in the text area below. Please don't type anything else.,NA,wolf,8587,NA
586,47,NA,NA,Graduated High-school,65199,1693490420490,1693490355291,male,NA,english,NA,NA,NA,NA,Please type in your favorite animal which you picked before the start of the study in lower case in the text area below. Please don't type anything else.,NA,dog,13093,NA
587,35,none,NA,Graduated High-school,68402,1693490429221,1693490360819,female,NA,english,NA,NA,NA,NA,Please type in your favorite animal which you picked before the start of the study in lower case in the text area below. Please don't type anything else.,NA,cat,12807,NA
588,22,NA,NA,Graduated College,65352,1693490438983,1693490373631,male,NA,english,NA,NA,NA,NA,Please type in your favorite animal which you picked before the start of the study in lower case in the text area below. Please don't type anything else.,NA,sloth,24378,NA
589,40,n/a,NA,Graduated High-school,119322,1693490439486,1693490320164,male,NA,NA,NA,NA,NA,NA,Please type in your favorite animal which you picked before the start of the study in lower case in the text area below. Please don't type anything else.,NA,sloth,6707,NA
590,39,NA,NA,Graduated High-school,75713,1693490442661,1693490366948,female,NA,english,NA,NA,NA,NA,Please type in your favorite animal which you picked before the start of the study in lower case in the text area below. Please don't type anything else.,NA,hippo,14691,NA
599,35,NA,NA,Graduated College,93134,1693490460553,1693490367419,male,NA,NA,NA,NA,NA,NA,Please type in your favorite animal which you picked before the start of the study in lower case in the text area below. Please don't type anything else.,NA,dog,9936,NA
591,48,went well,NA,Graduated High-school,84003,1693490447038,1693490363035,female,NA,English,NA,NA,NA,NA,Please type in your favorite animal which you picked before the start of the study in lower case in the text area below. Please don't type anything else.,NA,panda,10716,NA
592,33,NA,NA,Graduated High-school,91292,1693490446292,1693490355000,male,NA,English,NA,NA,NA,NA,Please type in your favorite animal which you picked before the start of the study in lower case in the text area below. Please don't type anything else.,NA,koala,18429,NA
593,43,k you,NA,Graduated High-school,91831,1693490465026,1693490373195,male,NA,english,NA,NA,NA,NA,Please type in your favorite animal which you picked before the start of the study in lower case in the text area below. Please don't type anything else.,NA,cat,10913,NA
594,37,NA,NA,Graduated High-school,83842,1693490449413,1693490365571,female,NA,NA,NA,NA,NA,NA,Please type in your favorite animal which you picked before the start of the study in lower case in the text area below. Please don't type anything else.,NA,sloth,7937,NA
597,50,NA,NA,Graduated High-school,66637,1693490450588,1693490383951,female,NA,English,NA,NA,NA,NA,Please type in your favorite animal which you picked before the start of the study in lower case in the text area below. Please don't type anything else.,NA,dolphin,12111,NA
595,40,NA,NA,Graduated College,64799,1693490450206,1693490385407,female,NA,english,NA,NA,NA,NA,Please type in your favorite animal which you picked before the start of the study in lower case in the text area below. Please don't type anything else.,NA,dog,19096,NA
596,37,There was no place to write an animal at the beginning,NA,Graduated College,70608,1693490449911,1693490379303,female,NA,English,NA,NA,NA,NA,Please type in your favorite animal which you picked before the start of the study in lower case in the text area below. Please don't type anything else.,NA,zebra,9283,NA
600,22,NA,NA,Graduated College,96048,1693490463902,1693490367854,female,NA,English,NA,NA,NA,NA,Please type in your favorite animal which you picked before the start of the study in lower case in the text area below. Please don't type anything else.,NA,I didn’t pick an animal,18895,NA
603,36,NA,NA,Graduated High-school,128085,1693490478546,1693490350461,female,NA,English,NA,NA,NA,NA,Please type in your favorite animal which you picked before the start of the study in lower case in the text area below. Please don't type anything else.,NA,dog,14209,NA
606,45,NA,NA,Graduated High-school,103927,1693490490167,1693490386240,female,NA,English,NA,NA,NA,NA,Please type in your favorite animal which you picked before the start of the study in lower case in the text area below. Please don't type anything else.,NA,sloth,8707,NA
598,21,NA,NA,Graduated High-school,73606,1693490455897,1693490382291,female,NA,english,NA,NA,NA,NA,Please type in your favorite animal which you picked before the start of the study in lower case in the text area below. Please don't type anything else.,NA,sloth,8120,NA
601,28,N/A,NA,Graduated High-school,91515,1693490471194,1693490379679,male,NA,English,NA,NA,NA,NA,Please type in your favorite animal which you picked before the start of the study in lower case in the text area below. Please don't type anything else.,NA,koala bear,9196,NA
607,33,NA,NA,Graduated College,130357,1693490487017,1693490356660,male,NA,English,NA,NA,NA,NA,Please type in your favorite animal which you picked before the start of the study in lower case in the text area below. Please don't type anything else.,NA,sloth,49342,NA
610,25,NA,NA,Graduated College,139055,1693490506255,1693490367200,female,NA,English,NA,NA,NA,NA,Please type in your favorite animal which you picked before the start of the study in lower case in the text area below. Please don't type anything else.,NA,koala,43561,NA
619,33,None :),NA,Graduated High-school,76611,1693490554732,1693490478121,male,NA,English,NA,NA,NA,NA,Please type in your favorite animal which you picked before the start of the study in lower case in the text area below. Please don't type anything else.,NA,sloth,9344,NA
602,61,"Thank you for the survey opportunities, have a great day.",NA,Graduated High-school,97473,1693490477187,1693490379714,female,NA,English,NA,NA,NA,NA,Please type in your favorite animal which you picked before the start of the study in lower case in the text area below. Please don't type anything else.,NA,sloth,11075,NA
604,34,NA,NA,Graduated College,58303,1693490480139,1693490421836,female,NA,English,NA,NA,NA,NA,Please type in your favorite animal which you picked before the start of the study in lower case in the text area below. Please don't type anything else.,NA,monkey,11466,NA
605,34,no,NA,Graduated College,94556,1693490481079,1693490386523,male,NA,English,NA,NA,NA,NA,Please type in your favorite animal which you picked before the start of the study in lower case in the text area below. Please don't type anything else.,NA,Lion,27746,NA
609,26,NA,NA,Higher degree,148441,1693490505177,1693490356736,female,NA,English,NA,NA,NA,NA,Please type in your favorite animal which you picked before the start of the study in lower case in the text area below. Please don't type anything else.,NA,koala,93623,NA
611,56,NA,NA,Graduated College,133961,1693490517637,1693490383676,female,NA,English,NA,NA,NA,NA,Please type in your favorite animal which you picked before the start of the study in lower case in the text area below. Please don't type anything else.,NA,dog,30174,NA
623,48,none,NA,Graduated High-school,191261,1693490577849,1693490386588,male,NA,english,NA,NA,NA,NA,Please type in your favorite animal which you picked before the start of the study in lower case in the text area below. Please don't type anything else.,NA,NA,43601,NA
608,56,NA,NA,Higher degree,126088,1693490491795,1693490365707,female,NA,English,NA,NA,NA,NA,Please type in your favorite animal which you picked before the start of the study in lower case in the text area below. Please don't type anything else.,NA,koala,19914,NA
612,60,NA,NA,Graduated College,137323,1693490519384,1693490382061,female,NA,English,NA,NA,NA,NA,Please type in your favorite animal which you picked before the start of the study in lower case in the text area below. Please don't type anything else.,NA,koala,21085,NA
613,45,NA,NA,Graduated High-school,166181,1693490546499,1693490380318,female,NA,English,NA,NA,NA,NA,Please type in your favorite animal which you picked before the start of the study in lower case in the text area below. Please don't type anything else.,NA,giraffe,18778,NA
614,26,NA,NA,Graduated High-school,152754,1693490528412,1693490375658,male,NA,English,NA,NA,NA,NA,Please type in your favorite animal which you picked before the start of the study in lower case in the text area below. Please don't type anything else.,NA,Koala,16844,NA
616,62,NA,NA,Graduated College,150137,1693490535467,1693490385330,female,NA,English,NA,NA,NA,NA,Please type in your favorite animal which you picked before the start of the study in lower case in the text area below. Please don't type anything else.,NA,dog,34840,NA
621,28,none,NA,Graduated College,159261,1693490564285,1693490405024,male,NA,english,NA,NA,NA,NA,Please type in your favorite animal which you picked before the start of the study in lower case in the text area below. Please don't type anything else.,NA,sloth,43636,NA
615,68,none,NA,Graduated High-school,159979,1693490534507,1693490374528,male,NA,english,NA,NA,NA,NA,Please type in your favorite animal which you picked before the start of the study in lower case in the text area below. Please don't type anything else.,NA,horse,26539,NA
620,74,none,NA,Graduated College,136613,1693490568478,1693490431865,female,NA,English,NA,NA,NA,NA,Please type in your favorite animal which you picked before the start of the study in lower case in the text area below. Please don't type anything else.,NA,sloth,25454,NA
631,42,None,NA,Graduated High-school,300468,1693490687796,1693490387328,male,NA,English,NA,NA,NA,NA,Please type in your favorite animal which you picked before the start of the study in lower case in the text area below. Please don't type anything else.,NA,sloth,12248,NA
634,23,NA,NA,Graduated High-school,448397,1693490809609,1693490361212,male,NA,"Spanish, English",NA,NA,NA,NA,Please type in your favorite animal which you picked before the start of the study in lower case in the text area below. Please don't type anything else.,NA,Cheetah,12499,NA
618,35,No additional comments.,NA,Graduated College,132255,1693490548380,1693490416125,male,NA,"English, Dutch",NA,NA,NA,NA,Please type in your favorite animal which you picked before the start of the study in lower case in the text area below. Please don't type anything else.,NA,sloth,9737,NA
625,44,NA,NA,Graduated College,90752,1693490602494,1693490511742,male,NA,English,NA,NA,NA,NA,Please type in your favorite animal which you picked before the start of the study in lower case in the text area below. Please don't type anything else.,NA,koala bear,10134,NA
626,51,NA,NA,Graduated College,237849,1693490482340,1693490244491,male,NA,english,NA,NA,NA,NA,Please type in your favorite animal which you picked before the start of the study in lower case in the text area below. Please don't type anything else.,NA,magpie,122676,NA
622,50,NA,NA,Graduated College,135472,1693490576037,1693490440565,female,NA,English,NA,NA,NA,NA,Please type in your favorite animal which you picked before the start of the study in lower case in the text area below. Please don't type anything else.,NA,Ant Eater,30093,NA
624,40,NA,NA,Higher degree,98010,1693490582641,1693490484631,male,NA,English,NA,NA,NA,NA,Please type in your favorite animal which you picked before the start of the study in lower case in the text area below. Please don't type anything else.,NA,zebra,15765,NA
629,45,NA,NA,Higher degree,57575,1693490649788,1693490592213,male,NA,English,NA,NA,NA,NA,Please type in your favorite animal which you picked before the start of the study in lower case in the text area below. Please don't type anything else.,NA,cat,10107,NA
627,49,NA,NA,Graduated College,249814,1693490598473,1693490348659,male,NA,NA,NA,NA,NA,NA,Please type in your favorite animal which you picked before the start of the study in lower case in the text area below. Please don't type anything else.,NA,dog,102764,NA
628,63,NA,NA,Graduated High-school,209638,1693490626755,1693490417117,male,NA,english,NA,NA,NA,NA,Please type in your favorite animal which you picked before the start of the study in lower case in the text area below. Please don't type anything else.,NA,koala bear,55477,NA
630,35,NA,NA,Graduated High-school,191478,1693490655418,1693490463940,other,NA,English,NA,NA,NA,NA,Please type in your favorite animal which you picked before the start of the study in lower case in the text area below. Please don't type anything else.,NA,sloth,13887,NA
632,48,n/a,NA,Graduated College,326252,1693490707536,1693490381284,female,NA,English,NA,NA,NA,NA,Please type in your favorite animal which you picked before the start of the study in lower case in the text area below. Please don't type anything else.,NA,dog,103366,NA
633,32,NA,NA,Graduated High-school,75883,1693490763948,1693490688065,female,NA,English,NA,NA,NA,NA,Please type in your favorite animal which you picked before the start of the study in lower case in the text area below. Please don't type anything else.,NA,dog,14114,NA
635,26,n/a! Thanks :),NA,Higher degree,231817,1693490947827,1693490716010,male,NA,English,NA,NA,NA,NA,Please type in your favorite animal which you picked before the start of the study in lower case in the text area below. Please don't type anything else.,NA,cat,59647,NA
636,45,Thank you,NA,Graduated High-school,147073,1693490967790,1693490820717,male,NA,English,NA,NA,NA,NA,Please type in your favorite animal which you picked before the start of the study in lower case in the text area below. Please don't type anything else.,NA,koala bear,56313,NA
637,39,NA,NA,Graduated College,634929,1693491025085,1693490390156,female,NA,english,NA,NA,NA,NA,Please type in your favorite animal which you picked before the start of the study in lower case in the text area below. Please don't type anything else.,NA,elephant,13876,NA
638,30,NA,NA,Graduated College,53145,1693491305069,1693491251924,female,NA,english,NA,NA,NA,NA,Please type in your favorite animal which you picked before the start of the study in lower case in the text area below. Please don't type anything else.,NA,koala bear,17382,NA
639,40,Enjoyed the study!,NA,Graduated College,1683094,1693492126800,1693490443706,female,NA,English,NA,NA,NA,NA,Please type in your favorite animal which you picked before the start of the study in lower case in the text area below. Please don't type anything else.,NA,dog,9609,NA
640,33,NA,NA,Graduated High-school,169271,1693814461208,1693814291937,female,NA,english,NA,NA,NA,NA,Please type in your favorite animal which you picked before the start of the study in lower case in the text area below. Please don't type anything else.,NA,wolf,11799,NA
641,50,NA,NA,Graduated High-school,100654,1693814590299,1693814489645,male,NA,English,NA,NA,NA,NA,Please type in your favorite animal which you picked before the start of the study in lower case in the text area below. Please don't type anything else.,NA,koala bear,17884,NA
642,27,NA,NA,Graduated College,212611,1693814833925,1693814621314,male,NA,English,NA,NA,NA,NA,Please type in your favorite animal which you picked before the start of the study in lower case in the text area below. Please don't type anything else.,NA,Sloth,21441,NA
643,24,NA,NA,Graduated College,72798,1693814908240,1693814835442,male,NA,English,NA,NA,NA,NA,Please type in your favorite animal which you picked before the start of the study in lower case in the text area below. Please don't type anything else.,NA,koala bear,26803,NA
676,66,NA,NA,Graduated College,167093,1693818585881,1693818418789,male,NA,NA,NA,NA,NA,NA,Please type in your favorite animal which you picked before the start of the study in lower case in the text area below. Please don't type anything else.,NA,tiger,24583,NA
644,38,NA,NA,Higher degree,148714,1693815051783,1693814903069,female,NA,English,NA,NA,NA,NA,Please type in your favorite animal which you picked before the start of the study in lower case in the text area below. Please don't type anything else.,NA,koala bear,8235,NA
645,21,NA,NA,Graduated High-school,62558,1693815325060,1693815262502,female,NA,English,NA,NA,NA,NA,Please type in your favorite animal which you picked before the start of the study in lower case in the text area below. Please don't type anything else.,NA,cat,13923,NA
646,36,None,NA,Graduated High-school,58418,1693815475739,1693815417321,male,NA,English,NA,NA,NA,NA,Please type in your favorite animal which you picked before the start of the study in lower case in the text area below. Please don't type anything else.,NA,dog,12500,NA
647,35,NA,NA,Graduated High-school,105842,1693815659733,1693815553891,female,NA,English,NA,NA,NA,NA,Please type in your favorite animal which you picked before the start of the study in lower case in the text area below. Please don't type anything else.,NA,koala bear,40358,NA
648,44,NA,NA,Graduated High-school,138683,1693815803745,1693815665062,male,NA,English,NA,NA,NA,NA,Please type in your favorite animal which you picked before the start of the study in lower case in the text area below. Please don't type anything else.,NA,Koala Bear,9853,NA
649,68,NA,NA,Graduated College,117945,1693815810288,1693815692343,male,NA,English,NA,NA,NA,NA,Please type in your favorite animal which you picked before the start of the study in lower case in the text area below. Please don't type anything else.,NA,koala bear,15466,NA
650,37,NA,NA,Graduated College,71907,1693815811607,1693815739700,male,NA,NA,NA,NA,NA,NA,Please type in your favorite animal which you picked before the start of the study in lower case in the text area below. Please don't type anything else.,NA,panda,8836,NA
651,21,Nope I like sloths,NA,Graduated High-school,135551,1693815946301,1693815810750,other,NA,English,NA,NA,NA,NA,Please type in your favorite animal which you picked before the start of the study in lower case in the text area below. Please don't type anything else.,NA,Sloth,10052,NA
652,56,NA,NA,Higher degree,125240,1693816363980,1693816238740,male,NA,English,NA,NA,NA,NA,Please type in your favorite animal which you picked before the start of the study in lower case in the text area below. Please don't type anything else.,NA,ant-eater,11295,NA
653,35,NA,NA,Graduated College,96438,1693816547542,1693816451104,male,NA,English,NA,NA,NA,NA,Please type in your favorite animal which you picked before the start of the study in lower case in the text area below. Please don't type anything else.,NA,koala bear,6619,NA
677,18,NA,NA,Graduated High-school,78504,1693818617771,1693818539267,female,NA,english,NA,NA,NA,NA,Please type in your favorite animal which you picked before the start of the study in lower case in the text area below. Please don't type anything else.,NA,koala bear,8562,NA
654,49,thanks,NA,Graduated High-school,103454,1693816659559,1693816556105,male,NA,english,NA,NA,NA,NA,Please type in your favorite animal which you picked before the start of the study in lower case in the text area below. Please don't type anything else.,NA,koala bear,15049,NA
655,66,The study went well,NA,Graduated College,126683,1693816651529,1693816524846,male,NA,English,NA,NA,NA,NA,Please type in your favorite animal which you picked before the start of the study in lower case in the text area below. Please don't type anything else.,NA,Dog,30417,NA
656,58,NA,NA,Graduated High-school,136958,1693816721093,1693816584135,male,NA,NA,NA,NA,NA,NA,Please type in your favorite animal which you picked before the start of the study in lower case in the text area below. Please don't type anything else.,NA,koala bear,27287,NA
657,59,NA,NA,Graduated High-school,301715,1693816734018,1693816432303,female,NA,English,NA,NA,NA,NA,Please type in your favorite animal which you picked before the start of the study in lower case in the text area below. Please don't type anything else.,NA,koala bear,94990,NA
658,48,no please,NA,Higher degree,203085,1693816837428,1693816634343,male,NA,NA,NA,NA,NA,NA,Please type in your favorite animal which you picked before the start of the study in lower case in the text area below. Please don't type anything else.,NA,no thanks,18124,NA
703,23,NA,NA,Graduated High-school,140204,1693819552751,1693819412547,male,NA,English,NA,NA,NA,NA,Please type in your favorite animal which you picked before the start of the study in lower case in the text area below. Please don't type anything else.,NA,Dog,19248,NA
659,22,NA,NA,Graduated High-school,60932,1693816969414,1693816908482,female,NA,english,NA,NA,NA,NA,Please type in your favorite animal which you picked before the start of the study in lower case in the text area below. Please don't type anything else.,NA,koala,10094,NA
660,71,NA,NA,Graduated High-school,310299,1693817007777,1693816697478,male,NA,English,NA,NA,NA,NA,Please type in your favorite animal which you picked before the start of the study in lower case in the text area below. Please don't type anything else.,NA,sloth,13813,NA
661,31,NA,NA,Graduated High-school,185453,1693817161023,1693816975570,female,NA,English,NA,NA,NA,NA,Please type in your favorite animal which you picked before the start of the study in lower case in the text area below. Please don't type anything else.,NA,Koala bear,37897,NA
662,26,NA,NA,Graduated High-school,62485,1693817362219,1693817299734,male,NA,NA,NA,NA,NA,NA,Please type in your favorite animal which you picked before the start of the study in lower case in the text area below. Please don't type anything else.,NA,cat,12695,NA
663,33,NA,NA,Graduated College,112716,1693817435165,1693817322449,female,NA,english,NA,NA,NA,NA,Please type in your favorite animal which you picked before the start of the study in lower case in the text area below. Please don't type anything else.,NA,sloth,9821,NA
664,45,NA,NA,Graduated High-school,365743,1693817524038,1693817158295,male,NA,English,NA,NA,NA,NA,Please type in your favorite animal which you picked before the start of the study in lower case in the text area below. Please don't type anything else.,NA,koala bear,13881,NA
665,28,None,NA,Graduated College,109267,1693817532358,1693817423091,female,NA,English,NA,NA,NA,NA,Please type in your favorite animal which you picked before the start of the study in lower case in the text area below. Please don't type anything else.,NA,Ant-eater,13588,NA
666,30,NA,NA,Graduated College,115005,1693817775847,1693817660842,female,NA,English,NA,NA,NA,NA,Please type in your favorite animal which you picked before the start of the study in lower case in the text area below. Please don't type anything else.,NA,Koala bear,19775,NA
667,73,No comment,NA,Higher degree,282136,1693818023989,1693817741853,male,NA,english,NA,NA,NA,NA,Please type in your favorite animal which you picked before the start of the study in lower case in the text area below. Please don't type anything else.,NA,sloth,77104,NA
668,35,NA,NA,Graduated High-school,56383,1693818081530,1693818025147,female,NA,NA,NA,NA,NA,NA,Please type in your favorite animal which you picked before the start of the study in lower case in the text area below. Please don't type anything else.,NA,Cat,12223,NA
669,25,NA,NA,Graduated High-school,125407,1693818111091,1693817985684,male,NA,English,NA,NA,NA,NA,Please type in your favorite animal which you picked before the start of the study in lower case in the text area below. Please don't type anything else.,NA,koala bear,27271,NA
670,50,NA,NA,Graduated High-school,127065,1693818200065,1693818073000,male,NA,English,NA,NA,NA,NA,Please type in your favorite animal which you picked before the start of the study in lower case in the text area below. Please don't type anything else.,NA,sloth,20349,NA
671,31,NA,NA,Graduated High-school,120481,1693818293939,1693818173458,male,NA,English,NA,NA,NA,NA,Please type in your favorite animal which you picked before the start of the study in lower case in the text area below. Please don't type anything else.,NA,koala,14621,NA
672,32,NA,NA,Graduated High-school,164524,1693818331172,1693818166648,male,NA,English,NA,NA,NA,NA,Please type in your favorite animal which you picked before the start of the study in lower case in the text area below. Please don't type anything else.,NA,koala,45317,NA
673,51,NA,NA,Graduated College,287398,1693818354399,1693818067001,male,NA,English,NA,NA,NA,NA,Please type in your favorite animal which you picked before the start of the study in lower case in the text area below. Please don't type anything else.,NA,sloth,17077,NA
678,26,NA,NA,Graduated High-school,386227,1693818632726,1693818246499,male,NA,English,NA,NA,NA,NA,Please type in your favorite animal which you picked before the start of the study in lower case in the text area below. Please don't type anything else.,NA,koala bear,183466,NA
679,57,Thank you,NA,Graduated College,149423,1693818632980,1693818483557,male,NA,English,NA,NA,NA,NA,Please type in your favorite animal which you picked before the start of the study in lower case in the text area below. Please don't type anything else.,NA,koala bear,12876,NA
682,31,NA,NA,Higher degree,118719,1693818688978,1693818570259,female,NA,"English, Cantonese",NA,NA,NA,NA,Please type in your favorite animal which you picked before the start of the study in lower case in the text area below. Please don't type anything else.,NA,koala bear,10494,NA
674,31,NA,NA,Graduated College,60053,1693818410569,1693818350516,male,NA,english,NA,NA,NA,NA,Please type in your favorite animal which you picked before the start of the study in lower case in the text area below. Please don't type anything else.,NA,cow,15607,NA
675,31,NA,NA,Graduated High-school,115691,1693818486358,1693818370667,male,NA,English,NA,NA,NA,NA,Please type in your favorite animal which you picked before the start of the study in lower case in the text area below. Please don't type anything else.,NA,ant-eater,12651,NA
684,30,NA,NA,Graduated College,176469,1693818762687,1693818586218,male,NA,English,NA,NA,NA,NA,Please type in your favorite animal which you picked before the start of the study in lower case in the text area below. Please don't type anything else.,NA,cat,44598,NA
680,43,NA,NA,Did not graduate High-school,65931,1693818641823,1693818575892,female,NA,English,NA,NA,NA,NA,Please type in your favorite animal which you picked before the start of the study in lower case in the text area below. Please don't type anything else.,NA,Wolf,11020,NA
685,40,NA,NA,Higher degree,64343,1693818767215,1693818702872,male,NA,english,NA,NA,NA,NA,Please type in your favorite animal which you picked before the start of the study in lower case in the text area below. Please don't type anything else.,NA,cat,10028,NA
681,28,NA,NA,Graduated College,97949,1693818643894,1693818545945,female,NA,English,NA,NA,NA,NA,Please type in your favorite animal which you picked before the start of the study in lower case in the text area below. Please don't type anything else.,NA,koala bear,11426,NA
683,33,NA,NA,Graduated College,127268,1693818718159,1693818590891,male,NA,English,NA,NA,NA,NA,Please type in your favorite animal which you picked before the start of the study in lower case in the text area below. Please don't type anything else.,NA,Koala bear,12021,NA
686,50,NA,NA,Graduated College,67277,1693818846413,1693818779136,female,NA,english,NA,NA,NA,NA,Please type in your favorite animal which you picked before the start of the study in lower case in the text area below. Please don't type anything else.,NA,butterfly,13505,NA
687,29,NA,NA,Graduated High-school,137801,1693818862962,1693818725161,female,NA,english,NA,NA,NA,NA,Please type in your favorite animal which you picked before the start of the study in lower case in the text area below. Please don't type anything else.,NA,koala,21102,NA
688,38,NA,NA,Graduated High-school,93744,1693818863414,1693818769670,female,NA,English,NA,NA,NA,NA,Please type in your favorite animal which you picked before the start of the study in lower case in the text area below. Please don't type anything else.,NA,sloth,11978,NA
689,28,NA,NA,Graduated College,179399,1693818901207,1693818721808,male,NA,English,NA,NA,NA,NA,Please type in your favorite animal which you picked before the start of the study in lower case in the text area below. Please don't type anything else.,NA,sloth,10798,NA
690,28,Everything was on track,NA,Graduated College,64929,1693818927240,1693818862311,male,NA,English,NA,NA,NA,NA,Please type in your favorite animal which you picked before the start of the study in lower case in the text area below. Please don't type anything else.,NA,koala bear,4432,NA
691,65,N/A,NA,Graduated College,113360,1693818937007,1693818823647,female,NA,English,NA,NA,NA,NA,Please type in your favorite animal which you picked before the start of the study in lower case in the text area below. Please don't type anything else.,NA,sloth,8860,NA
692,33,N/A,NA,Graduated High-school,293775,1693818968112,1693818674337,male,NA,English,NA,NA,NA,NA,Please type in your favorite animal which you picked before the start of the study in lower case in the text area below. Please don't type anything else.,NA,koala bear,34189,NA
693,35,NA,NA,Graduated High-school,173175,1693818973865,1693818800690,male,NA,English,NA,NA,NA,NA,Please type in your favorite animal which you picked before the start of the study in lower case in the text area below. Please don't type anything else.,NA,Koala bear,10698,NA
694,18,NA,NA,Graduated High-school,100590,1693819079828,1693818979238,male,NA,english,NA,NA,NA,NA,Please type in your favorite animal which you picked before the start of the study in lower case in the text area below. Please don't type anything else.,NA,sloth,30685,NA
695,33,NA,NA,Graduated High-school,153844,1693819111334,1693818957490,female,NA,English,NA,NA,NA,NA,Please type in your favorite animal which you picked before the start of the study in lower case in the text area below. Please don't type anything else.,NA,sloth,15277,NA
697,35,NA,NA,Graduated High-school,98554,1693819232047,1693819133493,male,NA,English,NA,NA,NA,NA,Please type in your favorite animal which you picked before the start of the study in lower case in the text area below. Please don't type anything else.,NA,koala bear,3621,NA
696,72,none,NA,Higher degree,333713,1693819115206,1693818781493,female,NA,English,NA,NA,NA,NA,Please type in your favorite animal which you picked before the start of the study in lower case in the text area below. Please don't type anything else.,NA,Koala Bear,26985,NA
698,55,NA,NA,Graduated High-school,172539,1693819255440,1693819082901,male,NA,English,NA,NA,NA,NA,Please type in your favorite animal which you picked before the start of the study in lower case in the text area below. Please don't type anything else.,NA,koala,62266,NA
699,29,n/a,NA,Graduated College,144752,1693819373237,1693819228485,male,NA,English,NA,NA,NA,NA,Please type in your favorite animal which you picked before the start of the study in lower case in the text area below. Please don't type anything else.,NA,Sloth,94830,NA
700,65,None,NA,Graduated College,177252,1693819442041,1693819264789,female,NA,English,NA,NA,NA,NA,Please type in your favorite animal which you picked before the start of the study in lower case in the text area below. Please don't type anything else.,NA,koala bear,49192,NA
701,70,none,NA,Graduated High-school,98221,1693819512722,1693819414501,female,NA,english,NA,NA,NA,NA,Please type in your favorite animal which you picked before the start of the study in lower case in the text area below. Please don't type anything else.,NA,koala bear,15660,NA
702,34,NA,NA,Graduated College,112362,1693819535676,1693819423314,female,NA,English,NA,NA,NA,NA,Please type in your favorite animal which you picked before the start of the study in lower case in the text area below. Please don't type anything else.,NA,giraffe,30851,NA
704,31,NA,NA,Graduated High-school,54730,1693819555686,1693819500956,male,NA,english,NA,NA,NA,NA,Please type in your favorite animal which you picked before the start of the study in lower case in the text area below. Please don't type anything else.,NA,turtle,11677,NA
706,66,NA,NA,Graduated College,67494,1693819596074,1693819528580,male,NA,NA,NA,NA,NA,NA,Please type in your favorite animal which you picked before the start of the study in lower case in the text area below. Please don't type anything else.,NA,Sloth,6060,NA
707,29,NA,NA,Graduated College,151012,1693819622469,1693819471457,male,NA,English,NA,NA,NA,NA,Please type in your favorite animal which you picked before the start of the study in lower case in the text area below. Please don't type anything else.,NA,koala bear,20808,NA
708,23,NA,NA,Graduated College,75278,1693819649982,1693819574704,female,NA,English,NA,NA,NA,NA,Please type in your favorite animal which you picked before the start of the study in lower case in the text area below. Please don't type anything else.,NA,sloth,11360,NA
709,25,NA,NA,Graduated College,55818,1693819697481,1693819641663,female,NA,English,NA,NA,NA,NA,Please type in your favorite animal which you picked before the start of the study in lower case in the text area below. Please don't type anything else.,NA,dog,10711,NA
711,55,NA,NA,Graduated High-school,252540,1693819770908,1693819518368,female,NA,English,NA,NA,NA,NA,Please type in your favorite animal which you picked before the start of the study in lower case in the text area below. Please don't type anything else.,NA,sloth,77547,NA
710,22,NA,NA,Graduated College,109362,1693819701166,1693819591804,male,NA,English,NA,NA,NA,NA,Please type in your favorite animal which you picked before the start of the study in lower case in the text area below. Please don't type anything else.,NA,ant-eater,10586,NA
712,63,Thank you,NA,Graduated High-school,106872,1693819809669,1693819702797,female,NA,English,NA,NA,NA,NA,Please type in your favorite animal which you picked before the start of the study in lower case in the text area below. Please don't type anything else.,NA,Koala bear,14893,NA
713,47,NA,NA,Graduated High-school,158303,1693819812426,1693819654123,male,NA,English,NA,NA,NA,NA,Please type in your favorite animal which you picked before the start of the study in lower case in the text area below. Please don't type anything else.,NA,cat,36924,NA
714,45,None.,NA,Graduated College,105275,1693819816145,1693819710870,male,NA,English.,NA,NA,NA,NA,Please type in your favorite animal which you picked before the start of the study in lower case in the text area below. Please don't type anything else.,NA,sloth,6696,NA
715,33,NA,NA,Graduated College,134367,1693819887013,1693819752646,other,NA,English,NA,NA,NA,NA,Please type in your favorite animal which you picked before the start of the study in lower case in the text area below. Please don't type anything else.,NA,Cat,23752,NA
716,49,None,NA,Graduated High-school,184418,1693819904842,1693819720424,female,NA,english,NA,NA,NA,NA,Please type in your favorite animal which you picked before the start of the study in lower case in the text area below. Please don't type anything else.,NA,sloth,21647,NA
717,21,NA,NA,Graduated High-school,53501,1693819916753,1693819863252,female,NA,English,NA,NA,NA,NA,Please type in your favorite animal which you picked before the start of the study in lower case in the text area below. Please don't type anything else.,NA,sloth,4079,NA
718,49,NA,NA,Graduated High-school,310531,1693819879712,1693819569181,male,NA,English,NA,NA,NA,NA,Please type in your favorite animal which you picked before the start of the study in lower case in the text area below. Please don't type anything else.,NA,dog,78859,NA
724,71,None,NA,Higher degree,189864,1693820056864,1693819867000,male,NA,English,NA,NA,NA,NA,Please type in your favorite animal which you picked before the start of the study in lower case in the text area below. Please don't type anything else.,NA,koala,35347,NA
719,33,NA,NA,Graduated High-school,137471,1693819925277,1693819787806,male,NA,English,NA,NA,NA,NA,Please type in your favorite animal which you picked before the start of the study in lower case in the text area below. Please don't type anything else.,NA,ant-eater,22286,NA
720,63,NA,NA,Graduated College,180055,1693819935484,1693819755429,female,NA,English,NA,NA,NA,NA,Please type in your favorite animal which you picked before the start of the study in lower case in the text area below. Please don't type anything else.,NA,koala,39416,NA
721,66,NA,NA,Graduated College,99608,1693819972752,1693819873144,male,NA,NA,NA,NA,NA,NA,Please type in your favorite animal which you picked before the start of the study in lower case in the text area below. Please don't type anything else.,NA,Sloth,6194,NA
722,37,NA,NA,Graduated College,154751,1693819985191,1693819830440,female,NA,NA,NA,NA,NA,NA,Please type in your favorite animal which you picked before the start of the study in lower case in the text area below. Please don't type anything else.,NA,sloth,18083,NA
723,27,NA,NA,Graduated High-school,149042,1693819999122,1693819850080,male,NA,English,NA,NA,NA,NA,Please type in your favorite animal which you picked before the start of the study in lower case in the text area below. Please don't type anything else.,NA,monkey,49339,NA
726,NA,NA,NA,NA,124077,1693820034904,1693819910827,NA,NA,NA,NA,NA,NA,NA,Please type in your favorite animal which you picked before the start of the study in lower case in the text area below. Please don't type anything else.,NA,dog,7360,NA
725,26,NA,NA,Graduated College,48109,1693820059963,1693820011854,female,NA,english,NA,NA,NA,NA,Please type in your favorite animal which you picked before the start of the study in lower case in the text area below. Please don't type anything else.,NA,platypus,12270,NA
727,27,NA,NA,Graduated High-school,165265,1693820077648,1693819912383,male,NA,English,NA,NA,NA,NA,Please type in your favorite animal which you picked before the start of the study in lower case in the text area below. Please don't type anything else.,NA,ant eater,16777,NA
728,42,"
None.",NA,Did not graduate High-school,119253,1693820080053,1693819960800,female,NA,english,NA,NA,NA,NA,Please type in your favorite animal which you picked before the start of the study in lower case in the text area below. Please don't type anything else.,NA,sloth,61485,NA
729,75,NA,NA,Graduated College,187022,1693820134079,1693819947057,female,NA,English,NA,NA,NA,NA,Please type in your favorite animal which you picked before the start of the study in lower case in the text area below. Please don't type anything else.,NA,koala,15141,NA
730,23,N/A,NA,Graduated High-school,118159,1693820183758,1693820065599,male,NA,English,NA,NA,NA,NA,Please type in your favorite animal which you picked before the start of the study in lower case in the text area below. Please don't type anything else.,NA,koala bear,22718,NA
731,62,NA,NA,NA,244918,1693820243895,1693819998977,female,NA,English,NA,NA,NA,NA,Please type in your favorite animal which you picked before the start of the study in lower case in the text area below. Please don't type anything else.,NA,sloth,22485,NA
732,66,NA,NA,Graduated College,125866,1693820222413,1693820096547,male,NA,english,NA,NA,NA,NA,Please type in your favorite animal which you picked before the start of the study in lower case in the text area below. Please don't type anything else.,NA,pig,27081,NA
740,NA,NA,NA,NA,65969,1693820447516,1693820381547,NA,NA,NA,NA,NA,NA,NA,Please type in your favorite animal which you picked before the start of the study in lower case in the text area below. Please don't type anything else.,NA,tiger,23102,NA
733,37,Have a great day!,NA,Graduated High-school,83074,1693820271455,1693820188381,other,NA,English,NA,NA,NA,NA,Please type in your favorite animal which you picked before the start of the study in lower case in the text area below. Please don't type anything else.,NA,cat,10102,NA
734,44,NA,NA,Graduated College,78664,1693820403818,1693820325154,male,NA,NA,NA,NA,NA,NA,Please type in your favorite animal which you picked before the start of the study in lower case in the text area below. Please don't type anything else.,NA,Koala bear,14669,NA
735,74,NA,NA,Higher degree,88031,1693820406962,1693820318931,male,NA,English,NA,NA,NA,NA,Please type in your favorite animal which you picked before the start of the study in lower case in the text area below. Please don't type anything else.,NA,Koala,10079,NA
736,41,None,NA,Higher degree,133544,1693820405602,1693820272058,male,NA,English,NA,NA,NA,NA,Please type in your favorite animal which you picked before the start of the study in lower case in the text area below. Please don't type anything else.,NA,Cat,7557,NA
737,24,NA,NA,Graduated High-school,81345,1693820410291,1693820328946,female,NA,NA,NA,NA,NA,NA,Please type in your favorite animal which you picked before the start of the study in lower case in the text area below. Please don't type anything else.,NA,koala,15871,NA
738,39,Thanks. Easy to follow along with.,NA,Graduated College,119308,1693820437076,1693820317768,male,NA,English,NA,NA,NA,NA,Please type in your favorite animal which you picked before the start of the study in lower case in the text area below. Please don't type anything else.,NA,sloth,11150,NA
739,41,NA,NA,Graduated High-school,99881,1693820441137,1693820341256,female,NA,English,NA,NA,NA,NA,Please type in your favorite animal which you picked before the start of the study in lower case in the text area below. Please don't type anything else.,NA,sloth,11926,NA
741,58,I have none,NA,Graduated College,139639,1693820486053,1693820346414,male,NA,English,NA,NA,NA,NA,Please type in your favorite animal which you picked before the start of the study in lower case in the text area below. Please don't type anything else.,NA,Dog,26081,NA
743,42,N/A,NA,Higher degree,116960,1693820522492,1693820405532,male,NA,english,NA,NA,NA,NA,Please type in your favorite animal which you picked before the start of the study in lower case in the text area below. Please don't type anything else.,NA,monkey,34186,NA
742,21,NA,NA,Graduated High-school,100230,1693820519882,1693820419652,male,NA,English,NA,NA,NA,NA,Please type in your favorite animal which you picked before the start of the study in lower case in the text area below. Please don't type anything else.,NA,sloth,18281,NA
744,43,Good,NA,Higher degree,228174,1693820580137,1693820351963,male,NA,Engish,NA,NA,NA,NA,Please type in your favorite animal which you picked before the start of the study in lower case in the text area below. Please don't type anything else.,NA,Ant-eater,50202,NA
745,36,NA,NA,Graduated High-school,131175,1693820621442,1693820490267,female,NA,English,NA,NA,NA,NA,Please type in your favorite animal which you picked before the start of the study in lower case in the text area below. Please don't type anything else.,NA,koala bear,24691,NA
746,28,NA,NA,Graduated College,258333,1693820649000,1693820390667,female,NA,English,NA,NA,NA,NA,Please type in your favorite animal which you picked before the start of the study in lower case in the text area below. Please don't type anything else.,NA,koala bear,24308,NA
747,26,NA,NA,Higher degree,49612,1693820650999,1693820601387,male,NA,NA,NA,NA,NA,NA,Please type in your favorite animal which you picked before the start of the study in lower case in the text area below. Please don't type anything else.,NA,koala bear,15945,NA
748,63,NA,NA,Higher degree,206000,1693820680311,1693820474311,male,NA,English,NA,NA,NA,NA,Please type in your favorite animal which you picked before the start of the study in lower case in the text area below. Please don't type anything else.,NA,dog,41971,NA
749,33,NA,NA,Did not graduate High-school,100907,1693820835231,1693820734324,other,NA,English,NA,NA,NA,NA,Please type in your favorite animal which you picked before the start of the study in lower case in the text area below. Please don't type anything else.,NA,wolf,29381,NA
750,57,NA,NA,Graduated High-school,221041,1693820839890,1693820618849,male,NA,NA,NA,NA,NA,NA,Please type in your favorite animal which you picked before the start of the study in lower case in the text area below. Please don't type anything else.,NA,Kola bear,33052,NA
751,30,NA,NA,Graduated College,134278,1693820864643,1693820730365,male,NA,"English, Spanish",NA,NA,NA,NA,Please type in your favorite animal which you picked before the start of the study in lower case in the text area below. Please don't type anything else.,NA,lion,19496,NA
752,42,NA,NA,Graduated High-school,128246,1693820967174,1693820838928,male,NA,English,NA,NA,NA,NA,Please type in your favorite animal which you picked before the start of the study in lower case in the text area below. Please don't type anything else.,NA,koala bear,20675,NA
753,32,NA,NA,Graduated College,217483,1693820974147,1693820756664,female,NA,English,NA,NA,NA,NA,Please type in your favorite animal which you picked before the start of the study in lower case in the text area below. Please don't type anything else.,NA,koala bear,47079,NA
757,39,NA,NA,Higher degree,65108,1693821036731,1693820971623,female,NA,english,NA,NA,NA,NA,Please type in your favorite animal which you picked before the start of the study in lower case in the text area below. Please don't type anything else.,NA,dog,15003,NA
754,57,NA,NA,Graduated High-school,132493,1693821018913,1693820886420,male,NA,english,NA,NA,NA,NA,Please type in your favorite animal which you picked before the start of the study in lower case in the text area below. Please don't type anything else.,NA,no animal was offered,20818,NA
755,28,NA,NA,Graduated College,63459,1693821025007,1693820961548,female,NA,English,NA,NA,NA,NA,Please type in your favorite animal which you picked before the start of the study in lower case in the text area below. Please don't type anything else.,NA,panda,15428,NA
756,35,NA,NA,Graduated High-school,145987,1693821029946,1693820883959,female,NA,English,NA,NA,NA,NA,Please type in your favorite animal which you picked before the start of the study in lower case in the text area below. Please don't type anything else.,NA,cat,26016,NA
758,59,NA,NA,Graduated High-school,217500,1693821045872,1693820828372,female,NA,English,NA,NA,NA,NA,Please type in your favorite animal which you picked before the start of the study in lower case in the text area below. Please don't type anything else.,NA,Koala Bear,15222,NA
767,63,NA,NA,Graduated College,125544,1693821189592,1693821064048,female,NA,English,NA,NA,NA,NA,Please type in your favorite animal which you picked before the start of the study in lower case in the text area below. Please don't type anything else.,NA,koala bear,17936,NA
774,33,I didn't pick an animal wtf,NA,Graduated College,101048,1693821318832,1693821217784,male,NA,English,NA,NA,NA,NA,Please type in your favorite animal which you picked before the start of the study in lower case in the text area below. Please don't type anything else.,NA,I didn't pick an animal wtf,34116,NA
759,25,NA,NA,Graduated High-school,108080,1693821071689,1693820963609,male,NA,English,NA,NA,NA,NA,Please type in your favorite animal which you picked before the start of the study in lower case in the text area below. Please don't type anything else.,NA,anteater,29194,NA
760,62,NA,NA,Graduated College,91760,1693821079631,1693820987871,female,NA,NA,NA,NA,NA,NA,Please type in your favorite animal which you picked before the start of the study in lower case in the text area below. Please don't type anything else.,NA,koala bear,39516,NA
761,32,The study was simple and easy to complete.,NA,Graduated High-school,98025,1693821118314,1693821020289,male,NA,English,NA,NA,NA,NA,Please type in your favorite animal which you picked before the start of the study in lower case in the text area below. Please don't type anything else.,NA,sloth,10914,NA
782,36,NA,NA,Graduated High-school,103097,1693821491199,1693821388102,male,NA,English,NA,NA,NA,NA,Please type in your favorite animal which you picked before the start of the study in lower case in the text area below. Please don't type anything else.,NA,Anteater,9797,NA
762,49,NA,NA,Graduated College,43211,1693821131283,1693821088072,male,NA,English,NA,NA,NA,NA,Please type in your favorite animal which you picked before the start of the study in lower case in the text area below. Please don't type anything else.,NA,sloth,3404,NA
763,59,No further comments,NA,Graduated High-school,264593,1693821142592,1693820877999,male,NA,English,NA,NA,NA,NA,Please type in your favorite animal which you picked before the start of the study in lower case in the text area below. Please don't type anything else.,NA,Koala Bear,31171,NA
764,56,NA,NA,Graduated College,131929,1693821163082,1693821031153,female,NA,English,NA,NA,NA,NA,Please type in your favorite animal which you picked before the start of the study in lower case in the text area below. Please don't type anything else.,NA,Koala bear,15372,NA
765,55,NA,NA,Graduated High-school,182452,1693821163447,1693820980995,female,NA,English,NA,NA,NA,NA,Please type in your favorite animal which you picked before the start of the study in lower case in the text area below. Please don't type anything else.,NA,Sloths,20710,NA
766,48,NA,NA,Graduated College,68042,1693821164497,1693821096455,male,NA,English,NA,NA,NA,NA,Please type in your favorite animal which you picked before the start of the study in lower case in the text area below. Please don't type anything else.,NA,koala bear,2798,NA
768,62,NA,NA,Graduated High-school,117453,1693821215137,1693821097684,female,NA,English,NA,NA,NA,NA,Please type in your favorite animal which you picked before the start of the study in lower case in the text area below. Please don't type anything else.,NA,sloth,11377,NA
769,35,NA,NA,Graduated College,115698,1693821241805,1693821126107,male,NA,english,NA,NA,NA,NA,Please type in your favorite animal which you picked before the start of the study in lower case in the text area below. Please don't type anything else.,NA,sloth,39053,NA
777,53,NA,NA,Graduated High-school,261049,1693821389623,1693821128574,male,NA,english,NA,NA,NA,NA,Please type in your favorite animal which you picked before the start of the study in lower case in the text area below. Please don't type anything else.,NA,Koala beat,27752,NA
778,52,NA,NA,Higher degree,97766,1693821407294,1693821309528,male,NA,English,NA,NA,NA,NA,Please type in your favorite animal which you picked before the start of the study in lower case in the text area below. Please don't type anything else.,NA,dog,17226,NA
788,31,NA,NA,Graduated College,81516,1693821753890,1693821672374,male,NA,English,NA,NA,NA,NA,Please type in your favorite animal which you picked before the start of the study in lower case in the text area below. Please don't type anything else.,NA,Sloth,9646,NA
770,56,none,NA,Graduated High-school,216131,1693821250672,1693821034541,male,NA,English,NA,NA,NA,NA,Please type in your favorite animal which you picked before the start of the study in lower case in the text area below. Please don't type anything else.,NA,koala bear,31902,NA
771,42,NA,NA,Higher degree,102255,1693821273534,1693821171279,male,NA,english,NA,NA,NA,NA,Please type in your favorite animal which you picked before the start of the study in lower case in the text area below. Please don't type anything else.,NA,koala bear,19063,NA
772,40,NA,NA,Graduated College,48527,1693821282267,1693821233740,male,NA,English,NA,NA,NA,NA,Please type in your favorite animal which you picked before the start of the study in lower case in the text area below. Please don't type anything else.,NA,sloth,4318,NA
773,44,NA,NA,Did not graduate High-school,100951,1693821305386,1693821204435,male,NA,English,NA,NA,NA,NA,Please type in your favorite animal which you picked before the start of the study in lower case in the text area below. Please don't type anything else.,NA,sloth,7054,NA
775,38,NA,NA,Graduated High-school,284189,1693821335974,1693821051785,female,NA,English,NA,NA,NA,NA,Please type in your favorite animal which you picked before the start of the study in lower case in the text area below. Please don't type anything else.,NA,sloth,22751,NA
776,37,NA,NA,Graduated High-school,93729,1693821327979,1693821234250,male,NA,Engish,NA,NA,NA,NA,Please type in your favorite animal which you picked before the start of the study in lower case in the text area below. Please don't type anything else.,NA,dog,26906,NA
779,42,NA,NA,Graduated High-school,129546,1693821433914,1693821304368,male,NA,English,NA,NA,NA,NA,Please type in your favorite animal which you picked before the start of the study in lower case in the text area below. Please don't type anything else.,NA,sloth,8189,NA
780,66,NA,NA,Graduated College,276106,1693821467778,1693821191672,female,NA,English,NA,NA,NA,NA,Please type in your favorite animal which you picked before the start of the study in lower case in the text area below. Please don't type anything else.,NA,Sloth,27790,NA
781,48,NA,NA,Graduated High-school,221631,1693821491445,1693821269814,female,NA,English,NA,NA,NA,NA,Please type in your favorite animal which you picked before the start of the study in lower case in the text area below. Please don't type anything else.,NA,sloth,36057,NA
785,75,NA,NA,Higher degree,177702,1693821597922,1693821420220,male,NA,NA,NA,NA,NA,NA,Please type in your favorite animal which you picked before the start of the study in lower case in the text area below. Please don't type anything else.,NA,sloth,20934,NA
783,42,NA,NA,Graduated College,130399,1693821568520,1693821438121,male,NA,english,NA,NA,NA,NA,Please type in your favorite animal which you picked before the start of the study in lower case in the text area below. Please don't type anything else.,NA,cat,20773,NA
784,39,NA,NA,Graduated High-school,57539,1693821581618,1693821524079,male,NA,English,NA,NA,NA,NA,Please type in your favorite animal which you picked before the start of the study in lower case in the text area below. Please don't type anything else.,NA,sloth,4753,NA
786,63,NA,NA,Higher degree,229326,1693821632412,1693821403086,female,NA,English,NA,NA,NA,NA,Please type in your favorite animal which you picked before the start of the study in lower case in the text area below. Please don't type anything else.,NA,sloth,36867,NA
787,54,NA,NA,Graduated High-school,118113,1693821724695,1693821606582,male,NA,english,NA,NA,NA,NA,Please type in your favorite animal which you picked before the start of the study in lower case in the text area below. Please don't type anything else.,NA,koala bear,12840,NA
789,57,None,NA,Graduated High-school,165661,1693821800563,1693821634902,female,NA,English,NA,NA,NA,NA,Please type in your favorite animal which you picked before the start of the study in lower case in the text area below. Please don't type anything else.,NA,Kola bear,29047,NA
790,75,none,NA,Higher degree,123259,1693821813876,1693821690617,male,NA,English,NA,NA,NA,NA,Please type in your favorite animal which you picked before the start of the study in lower case in the text area below. Please don't type anything else.,NA,sloth,12162,NA
791,37,None,NA,Higher degree,370169,1693821983680,1693821613511,male,NA,NA,NA,NA,NA,NA,Please type in your favorite animal which you picked before the start of the study in lower case in the text area below. Please don't type anything else.,NA,peacock,74280,NA
792,43,NA,NA,Graduated High-school,120565,1693822154106,1693822033541,male,NA,English,NA,NA,NA,NA,Please type in your favorite animal which you picked before the start of the study in lower case in the text area below. Please don't type anything else.,NA,koala,13431,NA
793,45,"None
",NA,Graduated High-school,63030,1693822288561,1693822225531,male,NA,English,NA,NA,NA,NA,Please type in your favorite animal which you picked before the start of the study in lower case in the text area below. Please don't type anything else.,NA,horse,11694,NA
794,37,"I trust that favorite animal is not an official Prolific check, as it violates multiple rules for a valid attention check for the platform.",NA,Higher degree,494056,1693822374918,1693821880862,male,NA,English,NA,NA,NA,NA,Please type in your favorite animal which you picked before the start of the study in lower case in the text area below. Please don't type anything else.,NA,sloth,10559,NA
433,36,NA,too_little,Higher degree,91538,1692802029459,1692801937921,female,24,English,Alex once volunteered as an assistant in a magic trick.|Alex does not want to talk about the magic tricks.|the magician had a trick with birds.|the curtains were a nice bright red color.,Alex once volunteered as an assistant in a magic trick.|Alex does not want to talk about the magic tricks.|the magician had a trick with birds.|the curtains were a nice bright red color.,distractor_1_prejacent|target_prejacent|distractor_2_prejacent|competitor_prejacent,vertical,Which of the following four sentences best expresses what Alex meant with their utterance?,FALSE,the curtains were a nice bright red color.,15788,2
435,29,NA,too_little,Graduated College,121418,1692802167815,1692802046397,female,24,English,Alex once volunteered as an assistant in a magic trick.|the  magic tricks were not very good.|the magician had a trick with birds.|there were some magic tricks.,Alex once volunteered as an assistant in a magic trick.|the  magic tricks were not very good.|the magician had a trick with birds.|there were some magic tricks.,distractor_1_prejacent|target_prejacent|distractor_2_prejacent|competitor_prejacent,vertical,Which of the following four sentences best expresses what Alex meant with their utterance?,FALSE,the  magic tricks were not very good.,22507,2
442,42,None,baseline,Higher degree,81621,1692802968718,1692802887097,male,24,English,the magician had a trick with birds.|Alex once volunteered as an assistant in a magic trick.|the magic tricks were good.|the magic tricks were not good.,the magician had a trick with birds.|Alex once volunteered as an assistant in a magic trick.|the magic tricks were good.|the magic tricks were not good.,distractor_2_prejacent|distractor_1_prejacent|target_prejacent|competitor_prejacent,vertical,Which of the following four sentences best expresses what Alex meant with their utterance?,FALSE,the magic tricks were good.,9886,2
